##TITLE= 
##JCAMP-DX= 4.24
##DATA TYPE= INFRARED SPECTRUM
##ORIGIN= JASCO
##OWNER= 
##DATE= 21/07/22
##TIME= 12:03:53
##SPECTROMETER/DATA SYSTEM= 
##RESOLUTION= 
##DELTAX=   0.96423347
##XUNITS= 1/CM
##YUNITS= TRANSMITTANCE
##XFACTOR= 1.00000
##YFACTOR= 1E-005
##FIRSTX=   649.8934
##LASTX=  4000.6047
##NPOINTS=     3476
##FIRSTY=      0.63460
##MAXY=      0.94033
##MINY=      0.24050
##XYDATA= (X++(Y..Y))
649.8934 63460 62293 61030 59867 59023 58636 58702 59066 59486 59697 59481
660.4999 58732 57517 56045 54538 53095 51625 49803 47134 43362 39050 35149
671.1065 32019 29465 27277 25473 24297 24050 24862 26546 28659 30717 32415
681.7131 33758 35077 36896 39699 43714 48797 54451 59989 64753 68302 70502
692.3196 71495 71592 71148 70452 69684 68913 68139 67333 66458 65474 64331
702.9262 62981 61395 59566 57500 55207 52736 50267 48192 47091 47545 49834
713.5328 53738 58561 63404 67488 70431 72330 73608 74683 75722 76633 77234
724.1393 77427 77273 76952 76654 76480 76424 76429 76445 76453 76448 76411
734.7459 76313 76123 75837 75479 75094 74726 74399 74111 73830 73512 73117
745.3525 72618 72010 71298 70484 69547 68440 67085 65385 63235 60550 57280
755.9590 53441 49125 44518 39905 35676 32301 30266 29964 31547 34821 39235
766.5656 44010 48389 51882 54414 56286 57983 59935 62334 65091 67925 70506
777.1722 72594 74093 75042 75563 75799 75878 75882 75852 75789 75680 75518
787.7787 75314 75094 74888 74705 74536 74358 74153 73916 73656 73391 73138
798.3853 72912 72729 72605 72550 72567 72639 72741 72842 72923 72977 73009
808.9919 73020 73003 72938 72807 72611 72387 72204 72142 72260 72566 73013
819.5984 73514 73982 74362 74639 74835 74986 75122 75253 75372 75463 75512
830.2050 75508 75442 75302 75071 74742 74338 73922 73592 73445 73536 73839
840.8116 74259 74670 74971 75125 75161 75137 75096 75048 74968 74824 74602
851.4182 74313 73981 73626 73250 72840 72378 71848 71242 70541 69709 68692
862.0247 67439 65955 64346 62839 61744 61366 61895 63322 65431 67866 70248
872.6313 72283 73824 74873 75532 75933 76189 76368 76502 76597 76653 76674
883.2379 76669 76647 76614 76570 76513 76440 76356 76272 76203 76159 76140
893.8444 76134 76121 76083 76009 75901 75776 75653 75546 75459 75377 75280
904.4510 75151 74990 74812 74636 74477 74335 74201 74061 73904 73722 73508
915.0576 73257 72963 72614 72189 71650 70953 70081 69090 68128 67409 67142
925.6641 67441 68261 69409 70617 71649 72372 72776 72941 72975 72966 72961
936.2707 72973 72997 73020 73028 73010 72959 72871 72751 72607 72447 72279
946.8773 72109 71939 71762 71570 71355 71118 70869 70623 70388 70152 69893
957.4838 69589 69227 68798 68272 67592 66696 65576 64346 63254 62625 62726
968.0904 63637 65196 67047 68787 70114 70915 71259 71317 71259 71192 71146
978.6970 71096 71003 70838 70592 70285 69958 69656 69419 69254 69133 69005
989.3035 68818 68551 68217 67835 67398 66854 66118 65139 63954 62703 61579
999.9101 60727 60159 59736 59236 58456 57305 55826 54156 52463 50911 49661
1010.5167 48888 48767 49438 50932 53137 55810 58640 61327 63647 65483 66820
1021.1232 67713 68252 68531 68631 68619 68556 68503 68514 68625 68839 69123
1031.7299 69421 69675 69850 69940 69961 69933 69870 69777 69656 69511 69349
1042.3364 69180 69006 68821 68613 68373 68101 67806 67502 67203 66923 66671
1052.9430 66453 66269 66110 65957 65789 65587 65340 65051 64724 64363 63965
1063.5496 63516 63007 62430 61788 61089 60339 59541 58696 57822 56959 56171
1074.1561 55530 55088 54859 54809 54872 54967 55021 54978 54802 54470 53976
1084.7627 53327 52544 51656 50693 49671 48598 47476 46301 45067 43765 42394
1095.3693 40992 39646 38484 37630 37134 36931 36841 36640 36157 35362 34400
1105.9758 33561 33193 33607 35003 37425 40767 44801 49234 53751 58069 61973
1116.5824 65332 68105 70326 72072 73437 74509 75354 76021 76542 76944 77254
1127.1890 77499 77704 77887 78057 78212 78345 78447 78509 78532 78519 78473
1137.7955 78400 78297 78161 77992 77789 77557 77304 77044 76787 76546 76330
1148.4021 76138 75964 75793 75611 75406 75170 74894 74574 74212 73815 73394
1159.0087 72956 72494 72003 71490 71001 70621 70447 70548 70924 71496 72130
1169.6152 72681 73042 73173 73096 72867 72523 72049 71370 70401 69138 67733
1180.2218 66499 65819 65974 67003 68666 70538 72189 73345 73952 74132 74070
1190.8284 73915 73737 73548 73338 73105 72853 72585 72297 71977 71620 71226
1201.4349 70801 70355 69896 69433 68968 68497 68000 67441 66781 65997 65099
1212.0415 64147 63249 62530 62099 62002 62188 62513 62766 62736 62293 61440
1222.6481 60331 59230 58432 58159 58480 59296 60368 61408 62159 62462 62283
1233.2546 61708 60905 60066 59358 58875 58622 58533 58504 58429 58228 57849
1243.8612 57268 56478 55504 54410 53315 52378 51785 51704 52256 53473 55289
1254.4678 57540 60003 62441 64651 66503 67948 69009 69758 70281 70653 70929
1265.0743 71139 71296 71404 71456 71449 71378 71247 71067 70854 70625 70395
1275.6809 70175 69972 69787 69612 69438 69250 69035 68785 68502 68197 67892
1286.2875 67618 67404 67271 67219 67224 67244 67235 67164 67016 66797 66526
1296.8940 66222 65894 65543 65165 64761 64337 63904 63465 63011 62530 62009
1307.5006 61451 60873 60301 59754 59239 58743 58242 57715 57161 56606 56092
1318.1072 55661 55325 55053 54787 54466 54052 53535 52916 52200 51382 50453
1328.7137 49398 48200 46849 45353 43761 42164 40693 39483 38645 38209 38065
1339.3203 37952 37572 36759 35534 34039 32453 30966 29785 29130 29203 30132
1349.9269 31938 34549 37851 41729 46057 50656 55264 59601 63470 66817 69699
1360.5334 72196 74331 76047 77278 78029 78363 78340 77988 77317 76344 75081
1371.1400 73497 71506 69018 66047 62766 59410 56118 52923 49886 47212 45227
1381.7466 44212 44259 45274 47084 49479 52155 54695 56729 58127 58969 59375
1392.3531 59404 59043 58263 57064 55486 53583 51416 49093 46772 44633 42864
1402.9597 41704 41476 42517 44993 48759 53459 58717 64182 69447 74026 77543
1413.5663 79920 81366 82191 82637 82824 82778 82512 82037 81318 80270 78830
1424.1729 77046 75102 73275 71856 71111 71233 72233 73860 75697 77365 78610
1434.7794 79276 79304 78853 78325 78094 78277 78793 79498 80241 80887 81328
1445.3860 81512 81442 81176 80810 80450 80176 80023 79988 80063 80258 80626
1455.9926 81246 82071 82810 83235 83399 83426 83370 83225 82957 82560 82087
1466.5991 81624 81207 80807 80358 79769 78935 77798 76459 75146 73982 72918
1477.2057 71851 70700 69440 68144 67004 66283 66209 66874 68223 70105 72296
1487.8123 74429 75979 76580 76395 75857 75218 74486 73554 72320 70823 69354
1498.4188 68310 67830 67746 67826 67916 67923 67740 67157 65828 63683 61494
1509.0254 59936 58866 57952 56990 55846 54401 52561 50320 47801 45203 42698
1519.6320 40409 38481 37147 36701 37440 39618 43280 48051 53177 57922 61961
1530.2385 65425 68681 71996 75241 77931 79721 80698 81191 81518 81900 82416
1540.8451 82935 83263 83437 83587 83755 83925 84081 84226 84370 84520 84665
1551.4517 84789 84878 84935 84969 84988 84980 84922 84808 84698 84645 84621
1562.0582 84582 84509 84401 84261 84092 83886 83629 83323 83003 82715 82479
1572.6648 82277 82069 81819 81519 81224 81010 80890 80814 80731 80612 80450
1583.2714 80253 80033 79799 79554 79300 79033 78735 78356 77819 77064 76106
1593.8779 75077 74206 73711 73680 74024 74538 74993 75221 75149 74800 74246
1604.4845 73553 72765 71928 71134 70533 70259 70332 70641 71015 71299 71354
1615.0911 71053 70350 69405 68503 67780 67171 66522 65700 64657 63473 62280
1625.6976 61110 59866 58447 56878 55317 53914 52695 51524 50125 48141 45430
1636.3042 42482 40044 38272 36869 35582 34320 33083 31897 30815 29979 29628
1646.9108 29891 30529 31197 31843 32852 35226 40399 48188 55686 61249 65533
1657.5173 69424 73351 77399 81419 85072 87974 89964 91203 91957 92430 92747
1668.1239 93002 93268 93556 93807 93967 94033 94033 93987 93903 93786 93653
1678.7305 93525 93409 93295 93153 92935 92620 92278 92017 91870 91819 91846
1689.3370 91939 92079 92242 92398 92519 92588 92598 92556 92481 92404 92343
1699.9436 92302 92272 92241 92197 92126 92020 91877 91714 91553 91408 91279
1710.5502 91156 91028 90889 90737 90575 90417 90296 90250 90279 90340 90398
1721.1567 90436 90452 90447 90425 90391 90347 90293 90226 90146 90056 89964
1731.7633 89884 89840 89848 89896 89952 89991 90004 89993 89960 89911 89855
1742.3699 89802 89756 89720 89690 89663 89641 89635 89660 89730 89829 89928
1752.9764 89999 90027 90007 89949 89867 89778 89692 89610 89533 89467 89425
1763.5830 89414 89430 89462 89497 89527 89548 89560 89560 89549 89525 89496
1774.1896 89469 89447 89428 89410 89391 89376 89370 89382 89416 89472 89545
1784.7961 89626 89703 89765 89803 89810 89781 89720 89651 89611 89627 89681
1795.4027 89730 89723 89624 89421 89147 88878 88698 88643 88683 88764 88839
1806.0093 88891 88926 88958 89002 89063 89134 89206 89272 89326 89366 89387
1816.6158 89389 89375 89354 89335 89326 89335 89363 89409 89464 89515 89545
1827.2224 89542 89507 89454 89404 89376 89372 89383 89398 89405 89401 89383
1837.8290 89352 89308 89249 89171 89069 88946 88821 88725 88676 88669 88685
1848.4355 88708 88733 88761 88793 88824 88842 88833 88788 88710 88615 88523
1859.0421 88453 88415 88402 88399 88389 88358 88299 88213 88110 88009 87936
1869.6487 87899 87888 87882 87863 87825 87766 87692 87611 87533 87466 87412
1880.2552 87367 87327 87285 87239 87185 87121 87042 86948 86844 86744 86669
1890.8618 86632 86635 86673 86736 86817 86906 86990 87053 87085 87080 87038
1901.4684 86961 86852 86721 86581 86456 86376 86371 86457 86625 86837 87047
1912.0750 87218 87335 87401 87418 87389 87319 87220 87112 87016 86948 86909
1922.6815 86896 86899 86907 86911 86905 86887 86859 86827 86797 86772 86747
1933.2881 86714 86669 86616 86565 86530 86516 86523 86540 86560 86575 86586
1943.8947 86594 86594 86573 86511 86394 86222 86018 85824 85688 85648 85714
1954.5012 85863 86049 86216 86325 86363 86341 86287 86222 86148 86051 85911
1965.1078 85726 85527 85375 85335 85431 85637 85891 86125 86294 86385 86415
1975.7144 86408 86382 86346 86305 86272 86264 86289 86341 86400 86439 86443
1986.3209 86412 86360 86305 86260 86231 86220 86228 86257 86306 86373 86452
1996.9275 86536 86616 86682 86723 86729 86699 86641 86568 86497 86446 86428
2007.5341 86453 86519 86615 86715 86786 86803 86756 86661 86543 86431 86342
2018.1406 86277 86231 86200 86186 86190 86204 86211 86200 86172 86143 86133
2028.7472 86149 86184 86217 86231 86220 86191 86159 86137 86136 86163 86217
2039.3538 86289 86359 86404 86406 86363 86288 86205 86138 86104 86110 86152
2049.9604 86215 86280 86325 86334 86302 86239 86164 86097 86047 86016 86000
2060.5669 85998 86014 86058 86131 86228 86334 86429 86496 86530 86531 86510
2071.1736 86482 86465 86473 86506 86556 86603 86626 86614 86567 86500 86431
2081.7800 86376 86341 86327 86325 86329 86336 86351 86383 86439 86513 86589
2092.3867 86641 86648 86606 86532 86456 86406 86391 86400 86411 86401 86364
2102.9932 86308 86251 86208 86189 86188 86195 86195 86177 86137 86078 86012
2113.5999 85953 85913 85898 85906 85930 85962 85995 86030 86067 86111 86164
2124.2063 86221 86273 86310 86323 86316 86295 86273 86257 86247 86238 86223
2134.8130 86202 86183 86179 86199 86239 86283 86311 86310 86278 86228 86172
2145.4194 86120 86077 86045 86030 86030 86036 86033 86029 86065 86214 86535
2156.0261 87005 87487 87754 87621 87083 86349 85701 85330 85259 85385 85569
2166.6326 85709 85770 85764 85717 85644 85556 85466 85395 85362 85369 85401
2177.2393 85440 85473 85501 85527 85546 85544 85512 85451 85374 85302 85245
2187.8457 85208 85190 85189 85213 85263 85331 85399 85438 85429 85365 85263
2198.4524 85149 85049 84979 84942 84933 84946 84979 85032 85099 85166 85216
2209.0588 85236 85223 85194 85171 85174 85208 85259 85307 85331 85326 85299
2219.6655 85266 85245 85246 85272 85322 85391 85472 85557 85633 85692 85725
2230.2720 85734 85721 85698 85674 85661 85664 85685 85714 85739 85748 85737
2240.8787 85713 85692 85690 85715 85759 85802 85822 85806 85759 85697 85641
2251.4851 85605 85592 85595 85603 85607 85604 85595 85587 85587 85601 85630
2262.0918 85664 85692 85702 85692 85672 85659 85666 85694 85731 85760 85773
2272.6982 85768 85755 85741 85732 85727 85723 85718 85713 85706 85696 85681
2283.3049 85666 85655 85657 85674 85704 85741 85776 85803 85817 85816 85802
2293.9114 85776 85747 85724 85717 85731 85762 85805 85852 85895 85931 85957
2304.5181 85972 85976 85970 85957 85941 85927 85918 85915 85914 85915 85914
2315.1245 85914 85917 85924 85934 85942 85941 85925 85899 85877 85875 85904
2325.7312 85963 86043 86126 86195 86236 86247 86233 86204 86171 86143 86128
2336.3376 86130 86152 86188 86223 86241 86227 86181 86116 86055 86014 85994
2346.9443 85986 85978 85964 85942 85916 85890 85868 85850 85830 85800 85757
2357.5508 85707 85664 85641 85646 85674 85716 85759 85800 85840 85884 85939
2368.1575 86005 86075 86140 86189 86215 86216 86194 86160 86123 86091 86069
2378.7639 86054 86044 86038 86034 86032 86028 86020 86003 85976 85944 85912
2389.3706 85890 85878 85875 85875 85874 85871 85869 85869 85873 85877 85879
2399.9771 85875 85867 85861 85859 85865 85876 85884 85884 85871 85847 85819
2410.5837 85793 85773 85756 85739 85718 85693 85670 85654 85645 85639 85629
2421.1902 85610 85583 85552 85526 85507 85496 85491 85491 85496 85505 85514
2431.7969 85520 85518 85507 85488 85464 85437 85409 85380 85349 85321 85300
2442.4033 85286 85281 85278 85272 85257 85231 85197 85159 85122 85092 85068
2453.0100 85049 85035 85024 85015 85009 85008 85012 85020 85033 85051 85074
2463.6165 85102 85133 85164 85192 85215 85236 85257 85284 85315 85349 85379
2474.2231 85400 85408 85401 85382 85353 85321 85291 85268 85252 85241 85229
2484.8296 85215 85196 85176 85159 85146 85138 85133 85131 85133 85137 85140
2495.4363 85136 85120 85091 85057 85031 85025 85042 85079 85124 85165 85194
2506.0427 85206 85202 85189 85173 85161 85157 85158 85160 85155 85144 85135
2516.6494 85137 85158 85191 85222 85233 85217 85181 85142 85117 85117 85136
2527.2559 85165 85191 85205 85203 85188 85167 85144 85123 85103 85083 85057
2537.8625 85029 85005 84997 85012 85047 85088 85118 85128 85118 85101 85090
2548.4690 85091 85099 85105 85103 85092 85081 85077 85085 85098 85106 85100
2559.0757 85075 85036 84992 84951 84919 84898 84886 84881 84880 84884 84891
2569.6821 84900 84910 84922 84935 84948 84957 84957 84946 84927 84906 84892
2580.2888 84887 84890 84893 84891 84883 84871 84859 84847 84831 84804 84766
2590.8953 84724 84689 84671 84676 84702 84743 84790 84836 84875 84901 84912
2601.5020 84905 84884 84857 84831 84814 84810 84817 84832 84850 84864 84869
2612.1084 84865 84851 84829 84803 84776 84748 84723 84700 84682 84670 84664
2622.7151 84662 84662 84662 84660 84655 84648 84641 84635 84636 84645 84663
2633.3215 84689 84720 84752 84781 84808 84834 84862 84892 84921 84950 84976
2643.9282 85000 85024 85050 85077 85103 85123 85132 85128 85113 85095 85080
2654.5347 85075 85083 85102 85126 85149 85170 85187 85202 85215 85223 85223
2665.1414 85211 85190 85165 85143 85131 85129 85131 85130 85122 85105 85084
2675.7478 85066 85055 85052 85052 85051 85048 85042 85034 85027 85019 85012
2686.3545 85004 84999 84998 85000 85003 85003 84993 84973 84944 84912 84885
2696.9609 84868 84863 84868 84879 84890 84897 84899 84899 84902 84912 84929
2707.5676 84948 84962 84964 84952 84932 84911 84899 84897 84900 84903 84897
2718.1741 84882 84862 84841 84823 84809 84795 84775 84746 84708 84663 84616
2728.7808 84569 84524 84477 84423 84359 84285 84205 84127 84058 83998 83944
2739.3872 83889 83827 83753 83671 83585 83504 83436 83387 83361 83357 83372
2749.9939 83400 83441 83496 83571 83665 83775 83889 83997 84089 84163 84221
2760.6003 84268 84307 84337 84360 84375 84381 84379 84369 84352 84333 84316
2771.2070 84305 84302 84299 84291 84273 84247 84223 84211 84214 84228 84242
2781.8135 84245 84231 84204 84173 84149 84138 84134 84125 84098 84045 83967
2792.4202 83873 83775 83684 83601 83522 83439 83344 83235 83113 82983 82855
2803.0266 82739 82651 82604 82607 82662 82758 82876 82995 83097 83173 83224
2813.6333 83253 83266 83266 83254 83230 83193 83143 83082 83013 82943 82874
2824.2397 82810 82751 82693 82633 82566 82491 82411 82331 82256 82192 82143
2834.8464 82110 82090 82076 82056 82022 81962 81870 81744 81587 81404 81204
2845.4529 80991 80764 80520 80250 79949 79613 79248 78864 78477 78107 77780
2856.0596 77521 77353 77294 77350 77518 77791 78154 78592 79084 79600 80110
2866.6660 80583 81001 81363 81676 81957 82217 82462 82690 82893 83059 83175
2877.2727 83234 83237 83198 83141 83087 83046 83013 82976 82922 82853 82779
2887.8792 82720 82688 82690 82723 82780 82856 82943 83033 83113 83173 83205
2898.4858 83211 83194 83164 83123 83073 83012 82941 82863 82784 82708 82636
2909.0923 82567 82496 82420 82339 82254 82169 82084 81996 81900 81791 81669
2919.6990 81535 81389 81226 81037 80823 80601 80409 80300 80319 80488 80792
2930.3054 81184 81606 82002 82340 82608 82809 82951 83042 83093 83115 83124
2940.9121 83137 83163 83204 83252 83298 83333 83357 83372 83383 83389 83388
2951.5186 83373 83339 83283 83205 83105 82980 82827 82643 82424 82164 81850
2962.1252 81459 80973 80390 79742 79096 78530 78102 77817 77623 77430 77158
2972.7317 76785 76363 76004 75831 75928 76304 76897 77605 78326 78985 79550
2983.3384 80017 80400 80711 80961 81159 81314 81434 81527 81602 81667 81735
2993.9448 81818 81925 82062 82224 82404 82596 82795 83000 83206 83405 83585
3004.5515 83739 83861 83957 84036 84108 84180 84249 84310 84353 84372 84366
3015.1580 84337 84291 84235 84177 84125 84090 84079 84093 84127 84168 84200
3025.7646 84210 84194 84159 84116 84077 84053 84044 84041 84030 83995 83926
3036.3711 83822 83688 83532 83360 83165 82936 82657 82320 81925 81480 81000
3046.9778 80502 80014 79583 79276 79168 79313 79723 80353 81107 81867 82529
3057.5842 83033 83364 83540 83591 83554 83475 83411 83426 83567 83842 84215
3068.1909 84617 84979 85259 85443 85546 85592 85604 85599 85589 85584 85592
3078.7974 85614 85646 85674 85689 85682 85660 85631 85606 85593 85591 85592
3089.4041 85588 85573 85547 85510 85467 85417 85362 85301 85231 85153 85072
3100.0105 84994 84934 84903 84910 84955 85029 85119 85209 85289 85354 85403
3110.6172 85440 85469 85493 85514 85532 85546 85551 85548 85538 85522 85506
3121.2236 85491 85479 85469 85463 85460 85459 85461 85462 85459 85450 85438
3131.8303 85425 85414 85412 85420 85438 85465 85493 85513 85519 85507 85483
3142.4368 85457 85439 85437 85451 85473 85495 85512 85523 85531 85540 85547
3153.0435 85550 85543 85524 85497 85468 85441 85418 85398 85376 85349 85316
3163.6499 85276 85231 85184 85142 85112 85102 85114 85144 85181 85215 85235
3174.2566 85241 85238 85234 85234 85242 85255 85272 85291 85311 85330 85346
3184.8630 85354 85356 85355 85356 85364 85380 85399 85416 85426 85429 85428
3195.4697 85427 85429 85436 85447 85462 85478 85497 85514 85526 85527 85517
3206.0762 85495 85466 85437 85412 85393 85383 85382 85390 85408 85434 85464
3216.6829 85495 85523 85544 85558 85561 85554 85534 85506 85473 85442 85425
3227.2893 85431 85467 85531 85607 85676 85719 85735 85739 85755 85796 85852
3237.8960 85888 85863 85762 85605 85442 85328 85291 85321 85380 85426 85434
3248.5024 85405 85354 85299 85252 85221 85209 85216 85234 85253 85262 85253
3259.1091 85230 85202 85178 85162 85152 85144 85134 85121 85104 85078 85038
3269.7156 84981 84905 84812 84703 84582 84451 84318 84198 84110 84072 84092
3280.3223 84169 84288 84429 84573 84708 84829 84941 85047 85149 85248 85336
3290.9287 85411 85469 85512 85541 85554 85551 85531 85500 85467 85442 85434
3301.5354 85445 85472 85509 85552 85597 85637 85664 85669 85646 85596 85534
3312.1418 85477 85442 85439 85464 85506 85554 85600 85641 85678 85711 85740
3322.7485 85762 85775 85779 85778 85773 85768 85764 85765 85769 85775 85781
3333.3550 85783 85780 85774 85769 85770 85777 85789 85803 85818 85832 85846
3343.9617 85857 85862 85861 85855 85849 85847 85846 85842 85828 85805 85776
3354.5681 85751 85737 85738 85751 85769 85787 85797 85798 85790 85775 85762
3365.1748 85756 85761 85776 85792 85802 85802 85792 85780 85771 85768 85769
3375.7813 85768 85761 85746 85725 85703 85689 85689 85706 85739 85777 85805
3386.3879 85812 85798 85769 85740 85724 85725 85740 85763 85787 85810 85832
3396.9944 85852 85871 85886 85895 85898 85896 85887 85873 85852 85830 85812
3407.6011 85802 85802 85808 85816 85823 85828 85833 85839 85843 85841 85831
3418.2075 85811 85786 85761 85740 85724 85715 85714 85724 85747 85783 85822
3428.8142 85856 85875 85878 85866 85845 85818 85788 85755 85726 85708 85707
3439.4207 85725 85757 85790 85813 85818 85806 85782 85753 85725 85703 85687
3450.0273 85682 85689 85707 85732 85760 85783 85795 85793 85780 85759 85737
3460.6338 85722 85718 85723 85732 85736 85733 85724 85715 85715 85724 85740
3471.2405 85754 85759 85752 85739 85725 85715 85712 85712 85713 85715 85718
3481.8469 85726 85737 85749 85757 85757 85745 85724 85698 85674 85660 85662
3492.4536 85679 85707 85739 85766 85782 85784 85773 85751 85723 85697 85679
3503.0601 85676 85685 85699 85706 85702 85687 85670 85661 85667 85684 85704
3513.6667 85721 85731 85736 85738 85734 85719 85690 85648 85600 85559 85532
3524.2732 85522 85522 85525 85530 85543 85569 85610 85658 85700 85727 85733
3534.8799 85723 85707 85696 85697 85709 85724 85733 85727 85703 85664 85622
3545.4863 85594 85589 85603 85624 85639 85644 85641 85639 85646 85660 85676
3556.0930 85686 85685 85678 85669 85662 85653 85632 85586 85507 85403 85304
3566.6995 85259 85295 85390 85498 85588 85647 85675 85680 85671 85659 85651
3577.3062 85647 85646 85646 85645 85641 85629 85602 85553 85482 85411 85377
3587.9126 85410 85496 85594 85664 85687 85660 85597 85533 85507 85536 85608
3598.5193 85688 85736 85728 85664 85566 85461 85370 85301 85258 85243 85252
3609.1257 85278 85312 85352 85393 85435 85469 85487 85477 85433 85362 85292
3619.7324 85258 85279 85340 85411 85465 85485 85459 85383 85274 85185 85167
3630.3391 85218 85298 85377 85443 85492 85519 85520 85494 85450 85402 85368
3640.9456 85356 85366 85380 85379 85339 85239 85072 84871 84745 84786 84938
3651.5522 85095 85201 85248 85246 85214 85183 85180 85209 85257 85308 85349
3662.1587 85376 85391 85394 85383 85355 85304 85235 85167 85128 85130 85154
3672.7654 85177 85181 85169 85164 85188 85240 85299 85348 85381 85396 85397
3683.3718 85390 85379 85362 85339 85310 85281 85273 85295 85336 85377 85407
3693.9785 85426 85437 85446 85455 85464 85471 85479 85491 85512 85541 85566
3704.5850 85576 85559 85513 85437 85340 85241 85178 85176 85224 85288 85341
3715.1917 85376 85393 85393 85376 85340 85288 85226 85168 85131 85133 85182
3725.7981 85263 85350 85412 85428 85388 85291 85146 84981 84848 84809 84877
3736.4048 84998 85104 85167 85186 85171 85133 85084 85045 85040 85068 85098
3747.0112 85101 85063 84997 84948 84973 85081 85214 85322 85383 85398 85378
3757.6179 85342 85318 85327 85365 85413 85449 85462 85452 85427 85401 85388
3768.2244 85393 85417 85453 85494 85529 85552 85554 85534 85496 85454 85428
3778.8311 85435 85470 85512 85539 85543 85532 85520 85517 85527 85545 85566
3789.4375 85586 85602 85612 85611 85595 85563 85522 85481 85447 85422 85406
3800.0442 85401 85413 85446 85488 85525 85550 85565 85579 85605 85641 85676
3810.6506 85697 85693 85659 85595 85513 85432 85368 85323 85294 85284 85302
3821.2573 85355 85425 85483 85514 85518 85506 85492 85489 85499 85519 85539
3831.8638 85552 85553 85541 85515 85474 85419 85360 85312 85290 85295 85321
3842.4705 85362 85414 85469 85520 85555 85564 85542 85484 85390 85268 85151
3853.0769 85103 85147 85237 85323 85393 85448 85487 85506 85499 85467 85422
3863.6836 85387 85377 85386 85398 85396 85375 85343 85317 85318 85352 85409
3874.2900 85471 85519 85543 85537 85502 85449 85393 85350 85326 85320 85329
3884.8967 85352 85389 85431 85468 85491 85496 85490 85485 85489 85498 85500
3895.5032 85484 85445 85386 85315 85249 85203 85187 85198 85236 85293 85361
3906.1099 85429 85491 85542 85583 85611 85624 85617 85590 85541 85480 85421
3916.7163 85383 85381 85413 85461 85507 85538 85549 85547 85542 85539 85541
3927.3230 85540 85527 85500 85464 85430 85414 85426 85460 85503 85545 85575
3937.9294 85588 85585 85568 85542 85515 85494 85481 85477 85477 85480 85483
3948.5361 85486 85490 85494 85501 85509 85516 85519 85512 85491 85460 85429
3959.1426 85412 85420 85454 85501 85542 85559 85548 85515 85476 85443 85424
3969.7493 85417 85417 85419 85421 85423 85427 85434 85443 85454 85466 85479
3980.3557 85490 85495 85490 85475 85453 85431 85417 85416 85427 85445 85462
3990.9624 85472 85470 85457 85440 85426 85421 85427 85440 85457 85471 85481
##END= 
