##TITLE= Y. Matt YM 54
##JCAMP-DX= 5.01  $$ datafile exported by Spectragryph v.1.2.14
##LONGDATE= 18/10/2017 13:01:18
##OWNER= unknown
##ORIGIN= unknown
##DATA TYPE= INFRARED SPECTRUM
##DATA CLASS= XYDATA
##SPECTROMETER/DATASYSTEM= unknown
##XUNITS= 1/CM
##YUNITS= TRANSMITTANCE
##XLABEL= Wavenumbers [1/cm]
##YLABEL= Transmittance
##XFACTOR= 1.000000
##YFACTOR= 1.000000
##FIRSTX= 3997.453000
##LASTX= 374.000000
##DELTAX= -1.416530
##NPOINTS= 2559
##XYDATA= (X++(Y..Y))
3997.453 0.93553 0.93492 0.93494 0.93538 0.93591 0.93639 0.93679 0.93704 0.93711 0.93704
3983.288 0.93679 0.93636 0.93598 0.93589 0.93607 0.93625 0.93615 0.93578 0.93538 0.93526
3969.122 0.93546 0.93570 0.93578 0.93574 0.93572 0.93571 0.93554 0.93528 0.93530 0.93576
3954.957 0.93629 0.93635 0.93590 0.93540 0.93528 0.93541 0.93531 0.93489 0.93472 0.93532
3940.792 0.93630 0.93678 0.93651 0.93596 0.93568 0.93582 0.93618 0.93650 0.93654 0.93623
3926.626 0.93580 0.93560 0.93565 0.93554 0.93512 0.93469 0.93465 0.93502 0.93550 0.93580
3912.461 0.93590 0.93585 0.93557 0.93501 0.93438 0.93411 0.93433 0.93477 0.93529 0.93599
3898.296 0.93662 0.93674 0.93632 0.93576 0.93566 0.93628 0.93699 0.93712 0.93688 0.93686
3884.130 0.93702 0.93695 0.93672 0.93669 0.93666 0.93633 0.93591 0.93567 0.93558 0.93572
3869.965 0.93628 0.93698 0.93726 0.93723 0.93733 0.93755 0.93745 0.93688 0.93610 0.93542
3855.800 0.93526 0.93633 0.93869 0.94019 0.93982 0.93859 0.93742 0.93656 0.93589 0.93531
3841.634 0.93514 0.93581 0.93723 0.93849 0.93876 0.93835 0.93802 0.93800 0.93794 0.93752
3827.469 0.93698 0.93669 0.93662 0.93665 0.93694 0.93750 0.93792 0.93843 0.93952 0.94057
3813.304 0.94046 0.93931 0.93790 0.93689 0.93660 0.93684 0.93699 0.93687 0.93684 0.93690
3799.139 0.93676 0.93670 0.93713 0.93772 0.93791 0.93779 0.93777 0.93785 0.93785 0.93787
3784.973 0.93813 0.93849 0.93865 0.93858 0.93855 0.93862 0.93867 0.93864 0.93848 0.93818
3770.808 0.93804 0.93835 0.93871 0.93856 0.93799 0.93750 0.93744 0.93799 0.93909 0.94003
3756.643 0.94012 0.93955 0.93895 0.93875 0.93895 0.93893 0.93828 0.93757 0.93763 0.93862
3742.477 0.93947 0.93943 0.93873 0.93786 0.93746 0.93808 0.93921 0.93965 0.93917 0.93837
3728.312 0.93791 0.93811 0.93883 0.93947 0.93960 0.93934 0.93898 0.93871 0.93849 0.93816
3714.147 0.93759 0.93697 0.93678 0.93727 0.93806 0.93867 0.93886 0.93879 0.93893 0.93956
3699.981 0.94031 0.94062 0.94028 0.93941 0.93844 0.93783 0.93780 0.93841 0.93966 0.94095
3685.816 0.94140 0.94085 0.93979 0.93879 0.93808 0.93754 0.93731 0.93804 0.93953 0.94050
3671.651 0.94086 0.94143 0.94230 0.94264 0.94231 0.94182 0.94141 0.94105 0.94077 0.94083
3657.485 0.94138 0.94194 0.94178 0.94089 0.93994 0.93972 0.94061 0.94186 0.94245 0.94235
3643.320 0.94193 0.94144 0.94102 0.94066 0.94024 0.93975 0.93937 0.93930 0.93942 0.93954
3629.155 0.93982 0.94029 0.94052 0.94044 0.94033 0.94034 0.94037 0.94035 0.94041 0.94062
3614.989 0.94090 0.94108 0.94102 0.94073 0.94040 0.94019 0.94020 0.94050 0.94101 0.94142
3600.824 0.94153 0.94149 0.94159 0.94188 0.94215 0.94218 0.94191 0.94146 0.94119 0.94147
3586.659 0.94215 0.94257 0.94246 0.94207 0.94169 0.94133 0.94090 0.94048 0.94025 0.94030
3572.493 0.94051 0.94076 0.94104 0.94154 0.94224 0.94264 0.94244 0.94207 0.94193 0.94191
3558.328 0.94174 0.94143 0.94130 0.94149 0.94182 0.94194 0.94172 0.94128 0.94097 0.94118
3544.163 0.94185 0.94240 0.94234 0.94174 0.94103 0.94054 0.94042 0.94076 0.94140 0.94188
3529.997 0.94189 0.94156 0.94119 0.94094 0.94088 0.94114 0.94162 0.94191 0.94177 0.94135
3515.832 0.94096 0.94086 0.94109 0.94149 0.94187 0.94217 0.94241 0.94262 0.94283 0.94300
3501.667 0.94296 0.94260 0.94207 0.94153 0.94095 0.94041 0.94018 0.94034 0.94059 0.94068
3487.501 0.94069 0.94083 0.94109 0.94143 0.94189 0.94236 0.94259 0.94245 0.94222 0.94230
3473.336 0.94270 0.94303 0.94309 0.94308 0.94312 0.94306 0.94282 0.94269 0.94284 0.94303
3459.171 0.94299 0.94276 0.94245 0.94205 0.94164 0.94139 0.94145 0.94188 0.94265 0.94351
3445.006 0.94413 0.94437 0.94417 0.94363 0.94306 0.94294 0.94343 0.94424 0.94481 0.94477
3430.840 0.94421 0.94366 0.94364 0.94413 0.94461 0.94460 0.94413 0.94357 0.94327 0.94325
3416.675 0.94338 0.94364 0.94413 0.94474 0.94514 0.94508 0.94459 0.94395 0.94342 0.94325
3402.510 0.94339 0.94362 0.94380 0.94403 0.94432 0.94446 0.94440 0.94436 0.94446 0.94453
3388.344 0.94448 0.94452 0.94468 0.94471 0.94449 0.94436 0.94467 0.94528 0.94577 0.94595
3374.179 0.94596 0.94595 0.94598 0.94608 0.94624 0.94637 0.94635 0.94622 0.94606 0.94594
3360.014 0.94601 0.94642 0.94706 0.94758 0.94776 0.94763 0.94736 0.94714 0.94709 0.94722
3345.848 0.94744 0.94763 0.94771 0.94759 0.94736 0.94730 0.94752 0.94783 0.94798 0.94793
3331.683 0.94780 0.94766 0.94759 0.94757 0.94754 0.94740 0.94718 0.94699 0.94698 0.94725
3317.518 0.94763 0.94775 0.94743 0.94677 0.94595 0.94497 0.94370 0.94203 0.93995 0.93756
3303.352 0.93485 0.93177 0.92849 0.92556 0.92357 0.92266 0.92262 0.92327 0.92473 0.92708
3289.187 0.93000 0.93274 0.93457 0.93545 0.93592 0.93661 0.93755 0.93833 0.93872 0.93896
3275.022 0.93931 0.93966 0.93986 0.94005 0.94040 0.94092 0.94151 0.94202 0.94227 0.94222
3260.856 0.94207 0.94208 0.94242 0.94313 0.94404 0.94484 0.94527 0.94531 0.94511 0.94478
3246.691 0.94445 0.94418 0.94385 0.94334 0.94263 0.94182 0.94094 0.93988 0.93870 0.93759
3232.526 0.93650 0.93521 0.93372 0.93239 0.93134 0.93018 0.92838 0.92580 0.92264 0.91907
3218.360 0.91520 0.91103 0.90645 0.90121 0.89519 0.88841 0.88099 0.87295 0.86436 0.85541
3204.195 0.84644 0.83781 0.82976 0.82253 0.81659 0.81257 0.81082 0.81106 0.81268 0.81515
3190.030 0.81836 0.82230 0.82682 0.83161 0.83638 0.84094 0.84522 0.84929 0.85326 0.85705
3175.864 0.86051 0.86357 0.86634 0.86900 0.87179 0.87477 0.87770 0.88014 0.88197 0.88355
3161.699 0.88521 0.88686 0.88833 0.88972 0.89123 0.89284 0.89446 0.89599 0.89726 0.89811
3147.534 0.89866 0.89920 0.89996 0.90096 0.90205 0.90308 0.90402 0.90489 0.90562 0.90615
3133.369 0.90657 0.90702 0.90746 0.90780 0.90814 0.90864 0.90935 0.91020 0.91122 0.91245
3119.203 0.91362 0.91428 0.91434 0.91430 0.91465 0.91541 0.91631 0.91722 0.91804 0.91850
3105.038 0.91848 0.91838 0.91884 0.92002 0.92147 0.92255 0.92301 0.92302 0.92287 0.92276
3090.873 0.92277 0.92296 0.92332 0.92375 0.92419 0.92473 0.92539 0.92597 0.92622 0.92614
3076.707 0.92600 0.92605 0.92631 0.92657 0.92673 0.92686 0.92700 0.92706 0.92703 0.92707
3062.542 0.92733 0.92779 0.92828 0.92866 0.92887 0.92886 0.92864 0.92840 0.92832 0.92837
3048.377 0.92836 0.92833 0.92841 0.92860 0.92875 0.92878 0.92879 0.92878 0.92851 0.92787
3034.211 0.92716 0.92687 0.92727 0.92827 0.92949 0.93057 0.93129 0.93177 0.93222 0.93274
3020.046 0.93334 0.93392 0.93428 0.93430 0.93422 0.93437 0.93481 0.93528 0.93560 0.93578
3005.881 0.93579 0.93550 0.93486 0.93395 0.93264 0.93050 0.92709 0.92247 0.91700 0.91110
2991.715 0.90513 0.89920 0.89293 0.88567 0.87724 0.86831 0.85960 0.85117 0.84318 0.83733
2977.550 0.83614 0.84042 0.84786 0.85496 0.86024 0.86526 0.87231 0.88166 0.89132 0.89914
2963.385 0.90446 0.90786 0.91011 0.91182 0.91342 0.91505 0.91654 0.91762 0.91820 0.91825
2949.219 0.91776 0.91692 0.91617 0.91576 0.91542 0.91444 0.91227 0.90885 0.90458 0.90001
2935.054 0.89564 0.89178 0.88861 0.88624 0.88502 0.88558 0.88829 0.89262 0.89731 0.90130
2920.889 0.90427 0.90655 0.90862 0.91068 0.91254 0.91401 0.91512 0.91603 0.91678 0.91732
2906.723 0.91763 0.91770 0.91760 0.91757 0.91792 0.91867 0.91952 0.92017 0.92056 0.92085
2892.558 0.92114 0.92145 0.92179 0.92217 0.92252 0.92281 0.92301 0.92307 0.92279 0.92204
2878.393 0.92089 0.91955 0.91820 0.91696 0.91592 0.91520 0.91487 0.91484 0.91489 0.91490
2864.227 0.91501 0.91552 0.91668 0.91837 0.92008 0.92137 0.92224 0.92299 0.92379 0.92463
2850.062 0.92540 0.92609 0.92675 0.92739 0.92784 0.92801 0.92802 0.92814 0.92843 0.92874
2835.897 0.92892 0.92902 0.92925 0.92969 0.93018 0.93050 0.93061 0.93070 0.93092 0.93129
2821.732 0.93169 0.93207 0.93243 0.93277 0.93289 0.93268 0.93227 0.93201 0.93206 0.93234
2807.566 0.93262 0.93279 0.93284 0.93270 0.93228 0.93170 0.93131 0.93129 0.93160 0.93205
2793.401 0.93247 0.93273 0.93279 0.93279 0.93289 0.93312 0.93340 0.93365 0.93384 0.93398
2779.236 0.93403 0.93407 0.93418 0.93434 0.93445 0.93450 0.93460 0.93478 0.93499 0.93516
2765.070 0.93525 0.93519 0.93491 0.93446 0.93403 0.93385 0.93406 0.93460 0.93518 0.93557
2750.905 0.93573 0.93576 0.93566 0.93541 0.93511 0.93490 0.93478 0.93466 0.93458 0.93468
2736.740 0.93505 0.93558 0.93610 0.93647 0.93666 0.93671 0.93666 0.93653 0.93641 0.93637
2722.574 0.93638 0.93632 0.93613 0.93591 0.93581 0.93595 0.93626 0.93661 0.93688 0.93704
2708.409 0.93704 0.93679 0.93636 0.93597 0.93584 0.93597 0.93617 0.93631 0.93646 0.93677
2694.244 0.93710 0.93725 0.93722 0.93716 0.93708 0.93687 0.93658 0.93639 0.93640 0.93654
2680.078 0.93671 0.93690 0.93710 0.93725 0.93734 0.93746 0.93762 0.93770 0.93755 0.93727
2665.913 0.93707 0.93705 0.93705 0.93696 0.93685 0.93686 0.93701 0.93717 0.93719 0.93709
2651.748 0.93704 0.93712 0.93726 0.93734 0.93736 0.93739 0.93746 0.93755 0.93760 0.93753
2637.582 0.93743 0.93748 0.93785 0.93842 0.93893 0.93921 0.93926 0.93917 0.93907 0.93908
2623.417 0.93926 0.93946 0.93951 0.93937 0.93918 0.93918 0.93950 0.94001 0.94038 0.94046
2609.252 0.94044 0.94053 0.94062 0.94042 0.93996 0.93971 0.94002 0.94069 0.94123 0.94128
2595.086 0.94092 0.94047 0.94017 0.94007 0.94014 0.94035 0.94067 0.94100 0.94117 0.94121
2580.921 0.94126 0.94133 0.94131 0.94123 0.94129 0.94147 0.94153 0.94140 0.94117 0.94092
2566.756 0.94081 0.94109 0.94170 0.94220 0.94232 0.94230 0.94248 0.94284 0.94309 0.94303
2552.590 0.94277 0.94259 0.94269 0.94302 0.94334 0.94340 0.94314 0.94269 0.94218 0.94172
2538.425 0.94150 0.94169 0.94215 0.94247 0.94232 0.94184 0.94148 0.94146 0.94159 0.94159
2524.260 0.94141 0.94107 0.94056 0.94004 0.93979 0.93992 0.94030 0.94087 0.94168 0.94252
2510.094 0.94290 0.94265 0.94216 0.94193 0.94200 0.94205 0.94194 0.94184 0.94194 0.94231
2495.929 0.94279 0.94301 0.94274 0.94223 0.94193 0.94196 0.94209 0.94217 0.94226 0.94245
2481.764 0.94272 0.94287 0.94265 0.94218 0.94194 0.94218 0.94265 0.94299 0.94311 0.94310
2467.599 0.94308 0.94315 0.94319 0.94296 0.94243 0.94191 0.94179 0.94213 0.94265 0.94289
2453.433 0.94262 0.94210 0.94173 0.94162 0.94168 0.94195 0.94247 0.94304 0.94341 0.94358
2439.268 0.94365 0.94362 0.94356 0.94361 0.94370 0.94358 0.94316 0.94266 0.94227 0.94194
2425.103 0.94161 0.94131 0.94120 0.94146 0.94204 0.94260 0.94282 0.94267 0.94243 0.94246
2410.937 0.94293 0.94363 0.94424 0.94453 0.94440 0.94391 0.94339 0.94323 0.94346 0.94367
2396.772 0.94352 0.94305 0.94255 0.94225 0.94220 0.94234 0.94259 0.94282 0.94286 0.94268
2382.607 0.94239 0.94213 0.94195 0.94187 0.94183 0.94175 0.94168 0.94195 0.94280 0.94396
2368.441 0.94485 0.94521 0.94520 0.94498 0.94449 0.94375 0.94294 0.94222 0.94178 0.94190
2354.276 0.94262 0.94345 0.94385 0.94376 0.94355 0.94359 0.94398 0.94450 0.94483 0.94492
2340.111 0.94505 0.94552 0.94626 0.94679 0.94669 0.94607 0.94555 0.94539 0.94522 0.94460
2325.945 0.94360 0.94257 0.94181 0.94151 0.94183 0.94265 0.94347 0.94386 0.94390 0.94392
2311.780 0.94397 0.94387 0.94361 0.94345 0.94341 0.94309 0.94226 0.94136 0.94120 0.94198
2297.615 0.94310 0.94374 0.94364 0.94317 0.94280 0.94263 0.94254 0.94255 0.94278 0.94318
2283.449 0.94348 0.94340 0.94296 0.94241 0.94199 0.94192 0.94232 0.94306 0.94382 0.94427
2269.284 0.94434 0.94421 0.94427 0.94476 0.94551 0.94603 0.94600 0.94559 0.94529 0.94556
2255.119 0.94642 0.94745 0.94816 0.94837 0.94813 0.94776 0.94772 0.94820 0.94877 0.94871
2240.953 0.94777 0.94639 0.94527 0.94486 0.94501 0.94528 0.94547 0.94581 0.94628 0.94628
2226.788 0.94519 0.94336 0.94205 0.94231 0.94410 0.94652 0.94858 0.94959 0.94927 0.94799
2212.623 0.94655 0.94562 0.94541 0.94586 0.94664 0.94735 0.94758 0.94718 0.94648 0.94619
2198.457 0.94664 0.94721 0.94712 0.94660 0.94660 0.94766 0.94929 0.95036 0.95022 0.94923
2184.292 0.94828 0.94780 0.94740 0.94660 0.94582 0.94600 0.94739 0.94911 0.95012 0.94992
2170.127 0.94851 0.94638 0.94468 0.94454 0.94609 0.94826 0.94972 0.95016 0.95033 0.95075
2155.962 0.95091 0.95031 0.94956 0.94957 0.95050 0.95161 0.95227 0.95244 0.95236 0.95210
2141.796 0.95171 0.95147 0.95156 0.95166 0.95133 0.95056 0.94970 0.94891 0.94819 0.94785
2127.631 0.94822 0.94902 0.94952 0.94948 0.94929 0.94933 0.94942 0.94901 0.94771 0.94557
2113.466 0.94326 0.94168 0.94138 0.94218 0.94331 0.94390 0.94370 0.94314 0.94255 0.94183
2099.300 0.94104 0.94072 0.94123 0.94224 0.94318 0.94392 0.94452 0.94482 0.94467 0.94442
2085.135 0.94436 0.94440 0.94451 0.94499 0.94594 0.94706 0.94801 0.94857 0.94833 0.94707
2070.970 0.94516 0.94340 0.94249 0.94276 0.94399 0.94563 0.94726 0.94859 0.94931 0.94924
2056.804 0.94860 0.94761 0.94610 0.94410 0.94222 0.94124 0.94139 0.94223 0.94317 0.94391
2042.639 0.94436 0.94460 0.94503 0.94607 0.94756 0.94888 0.94971 0.95034 0.95111 0.95186
2028.474 0.95209 0.95137 0.94979 0.94826 0.94807 0.94954 0.95153 0.95266 0.95303 0.95376
2014.308 0.95499 0.95541 0.95423 0.95245 0.95163 0.95184 0.95195 0.95146 0.95111 0.95170
2000.143 0.95287 0.95336 0.95251 0.95132 0.95129 0.95218 0.95232 0.95100 0.94928 0.94833
1985.978 0.94866 0.95030 0.95230 0.95313 0.95223 0.95063 0.94938 0.94829 0.94694 0.94555
1971.812 0.94472 0.94509 0.94710 0.95012 0.95223 0.95194 0.95007 0.94862 0.94843 0.94868
1957.647 0.94867 0.94866 0.94891 0.94902 0.94877 0.94873 0.94942 0.95044 0.95086 0.95024
1943.482 0.94925 0.94888 0.94914 0.94904 0.94825 0.94767 0.94830 0.94989 0.95134 0.95193
1929.316 0.95178 0.95132 0.95077 0.95025 0.94976 0.94916 0.94817 0.94649 0.94422 0.94218
1915.151 0.94151 0.94244 0.94411 0.94552 0.94638 0.94695 0.94734 0.94754 0.94773 0.94805
1900.986 0.94846 0.94879 0.94888 0.94876 0.94874 0.94904 0.94957 0.95008 0.95027 0.94989
1886.820 0.94914 0.94864 0.94880 0.94950 0.95026 0.95062 0.95042 0.94985 0.94936 0.94923
1872.655 0.94936 0.94944 0.94931 0.94910 0.94907 0.94922 0.94942 0.94965 0.94998 0.95037
1858.490 0.95065 0.95067 0.95050 0.95036 0.95019 0.94977 0.94909 0.94846 0.94825 0.94862
1844.325 0.94938 0.95003 0.95027 0.95023 0.95008 0.94991 0.94976 0.94965 0.94960 0.94956
1830.159 0.94944 0.94917 0.94895 0.94909 0.94964 0.95027 0.95060 0.95056 0.95036 0.95021
1815.994 0.95013 0.95006 0.94997 0.94991 0.94987 0.94976 0.94951 0.94914 0.94877 0.94838
1801.829 0.94765 0.94623 0.94447 0.94321 0.94294 0.94350 0.94454 0.94559 0.94626 0.94656
1787.663 0.94682 0.94729 0.94792 0.94848 0.94885 0.94906 0.94912 0.94900 0.94881 0.94872
1773.498 0.94894 0.94940 0.94971 0.94971 0.94954 0.94928 0.94901 0.94903 0.94952 0.95015
1759.333 0.95038 0.95017 0.94980 0.94942 0.94912 0.94910 0.94951 0.95009 0.95035 0.95030
1745.167 0.95023 0.95018 0.95006 0.94988 0.94965 0.94930 0.94890 0.94882 0.94932 0.94998
1731.002 0.95021 0.95013 0.94994 0.94979 0.94975 0.94974 0.94953 0.94915 0.94892 0.94914
1716.837 0.94958 0.94973 0.94972 0.94978 0.94990 0.95000 0.95009 0.95023 0.95034 0.95028
1702.671 0.95017 0.95029 0.95056 0.95054 0.95034 0.95034 0.95031 0.94993 0.94942 0.94914
1688.506 0.94918 0.94930 0.94945 0.94973 0.94990 0.94956 0.94877 0.94773 0.94651 0.94503
1674.341 0.94338 0.94214 0.94198 0.94330 0.94542 0.94686 0.94733 0.94751 0.94795 0.94859
1660.175 0.94898 0.94897 0.94869 0.94835 0.94847 0.94960 0.95057 0.95040 0.94984 0.94971
1646.010 0.95019 0.95062 0.95063 0.95032 0.94981 0.94926 0.94905 0.94950 0.95009 0.95010
1631.845 0.94978 0.94955 0.94954 0.94961 0.94957 0.94940 0.94913 0.94863 0.94785 0.94700
1617.679 0.94649 0.94656 0.94682 0.94691 0.94697 0.94726 0.94781 0.94840 0.94885 0.94914
1603.514 0.94940 0.94967 0.94997 0.95029 0.95060 0.95086 0.95106 0.95120 0.95129 0.95131
1589.349 0.95122 0.95107 0.95093 0.95085 0.95083 0.95075 0.95045 0.94965 0.94758 0.94283
1575.183 0.93576 0.92975 0.92714 0.92879 0.93446 0.94091 0.94506 0.94709 0.94803 0.94831
1561.018 0.94838 0.94906 0.95054 0.95119 0.95089 0.95048 0.95032 0.95047 0.95081 0.95119
1546.853 0.95149 0.95173 0.95196 0.95223 0.95265 0.95319 0.95331 0.95295 0.95253 0.95230
1532.687 0.95216 0.95187 0.95160 0.95170 0.95220 0.95270 0.95286 0.95289 0.95312 0.95351
1518.522 0.95373 0.95371 0.95357 0.95334 0.95303 0.95263 0.95215 0.95180 0.95227 0.95346
1504.357 0.95405 0.95393 0.95356 0.95319 0.95274 0.95152 0.94861 0.94330 0.93339 0.91429
1490.192 0.88450 0.85698 0.84934 0.85958 0.87547 0.88997 0.90152 0.91036 0.91689 0.92175
1476.026 0.92546 0.92800 0.92884 0.92742 0.92408 0.91966 0.91452 0.90901 0.90456 0.90280
1461.861 0.90341 0.90479 0.90524 0.90250 0.89669 0.89262 0.89279 0.89655 0.90238 0.90830
1447.696 0.91207 0.91199 0.90777 0.90039 0.89179 0.88454 0.88079 0.88179 0.88639 0.88979
1433.530 0.88846 0.88258 0.87388 0.86577 0.86202 0.86384 0.86998 0.87775 0.88460 0.88999
1419.365 0.89460 0.89771 0.89787 0.89547 0.89197 0.88901 0.88820 0.89023 0.89435 0.89935
1405.200 0.90426 0.90830 0.91118 0.91328 0.91503 0.91640 0.91730 0.91793 0.91830 0.91829
1391.034 0.91795 0.91763 0.91764 0.91791 0.91773 0.91623 0.91283 0.90744 0.90080 0.89422
1376.869 0.88918 0.88740 0.89016 0.89610 0.90156 0.90268 0.89530 0.87616 0.84723 0.81826
1362.704 0.80443 0.81399 0.83819 0.86360 0.88403 0.89885 0.90908 0.91598 0.92064 0.92391
1348.538 0.92637 0.92832 0.92986 0.93104 0.93197 0.93276 0.93347 0.93407 0.93446 0.93467
1334.373 0.93482 0.93496 0.93498 0.93464 0.93360 0.93157 0.92865 0.92546 0.92272 0.92027
1320.208 0.91668 0.91002 0.89955 0.88655 0.87351 0.86286 0.85628 0.85450 0.85730 0.86332
1306.042 0.87009 0.87526 0.87809 0.87967 0.88149 0.88377 0.88505 0.88358 0.87935 0.87488
1291.877 0.87363 0.87727 0.88441 0.89172 0.89606 0.89563 0.89040 0.88264 0.87643 0.87526
1277.712 0.87923 0.88514 0.88960 0.89200 0.89430 0.89840 0.90418 0.91001 0.91457 0.91766
1263.546 0.91966 0.92097 0.92180 0.92235 0.92280 0.92320 0.92353 0.92386 0.92429 0.92481
1249.381 0.92541 0.92617 0.92713 0.92818 0.92908 0.92973 0.93022 0.93068 0.93110 0.93143
1235.216 0.93173 0.93224 0.93316 0.93441 0.93565 0.93663 0.93732 0.93791 0.93851 0.93911
1221.050 0.93966 0.94016 0.94062 0.94109 0.94162 0.94219 0.94267 0.94295 0.94298 0.94275
1206.885 0.94216 0.94119 0.94015 0.93946 0.93930 0.93955 0.94007 0.94075 0.94126 0.94113
1192.720 0.93984 0.93718 0.93366 0.93055 0.92904 0.92930 0.93042 0.93130 0.93123 0.92978
1178.555 0.92671 0.92192 0.91531 0.90659 0.89519 0.88053 0.86258 0.84283 0.82474 0.81261
1164.389 0.80923 0.81447 0.82586 0.84035 0.85555 0.86998 0.88282 0.89362 0.90227 0.90897
1150.224 0.91412 0.91815 0.92140 0.92401 0.92604 0.92764 0.92907 0.93045 0.93173 0.93272
1136.059 0.93327 0.93318 0.93213 0.92945 0.92343 0.91134 0.89102 0.86312 0.83214 0.80564
1121.893 0.79155 0.79390 0.80988 0.83181 0.85259 0.86902 0.88115 0.89010 0.89702 0.90268
1107.728 0.90739 0.91118 0.91414 0.91638 0.91798 0.91910 0.92009 0.92128 0.92263 0.92390
1093.563 0.92500 0.92604 0.92703 0.92791 0.92869 0.92958 0.93065 0.93172 0.93250 0.93287
1079.397 0.93275 0.93177 0.92932 0.92529 0.92080 0.91774 0.91732 0.91927 0.92233 0.92545
1065.232 0.92825 0.93073 0.93280 0.93425 0.93509 0.93560 0.93607 0.93649 0.93667 0.93642
1051.067 0.93564 0.93454 0.93372 0.93371 0.93453 0.93572 0.93687 0.93780 0.93840 0.93868
1036.901 0.93884 0.93908 0.93949 0.93996 0.94032 0.94046 0.94045 0.94044 0.94051 0.94060
1022.736 0.94071 0.94088 0.94109 0.94128 0.94143 0.94154 0.94156 0.94149 0.94130 0.94100
1008.571 0.94066 0.94044 0.94036 0.94029 0.94012 0.93993 0.93987 0.93988 0.93981 0.93967
994.405 0.93969 0.94004 0.94062 0.94115 0.94148 0.94170 0.94201 0.94248 0.94296 0.94327
980.240 0.94335 0.94339 0.94361 0.94408 0.94466 0.94517 0.94550 0.94564 0.94564 0.94562
966.075 0.94550 0.94492 0.94365 0.94211 0.94121 0.94144 0.94243 0.94350 0.94424 0.94453
951.909 0.94423 0.94313 0.94121 0.93873 0.93609 0.93368 0.93191 0.93127 0.93205 0.93398
937.744 0.93629 0.93820 0.93926 0.93947 0.93909 0.93840 0.93754 0.93649 0.93521 0.93372
923.579 0.93207 0.93022 0.92826 0.92666 0.92612 0.92701 0.92896 0.93106 0.93258 0.93311
909.413 0.93197 0.92726 0.91561 0.89440 0.86679 0.84418 0.83912 0.85389 0.87854 0.90081
895.248 0.91540 0.92366 0.92847 0.93146 0.93337 0.93466 0.93566 0.93665 0.93773 0.93888
881.083 0.94002 0.94114 0.94215 0.94287 0.94326 0.94350 0.94373 0.94396 0.94425 0.94471
866.918 0.94521 0.94549 0.94545 0.94530 0.94518 0.94492 0.94426 0.94305 0.94095 0.93699
852.752 0.93042 0.92230 0.91554 0.91251 0.91275 0.91325 0.90899 0.89290 0.86002 0.81579
838.587 0.77635 0.75604 0.75763 0.77617 0.80587 0.84010 0.87081 0.89284 0.90656 0.91505
824.422 0.92080 0.92497 0.92799 0.93008 0.93164 0.93298 0.93412 0.93498 0.93562 0.93623
810.256 0.93680 0.93697 0.93644 0.93545 0.93452 0.93384 0.93324 0.93259 0.93198 0.93174
796.091 0.93219 0.93315 0.93401 0.93426 0.93386 0.93310 0.93239 0.93193 0.93162 0.93114
781.926 0.93001 0.92788 0.92496 0.92213 0.92049 0.92063 0.92223 0.92417 0.92530 0.92509
767.760 0.92366 0.92145 0.91884 0.91580 0.91198 0.90729 0.90219 0.89718 0.89230 0.88727
753.595 0.88217 0.87746 0.87350 0.87037 0.86807 0.86662 0.86583 0.86541 0.86550 0.86670
739.430 0.86923 0.87248 0.87570 0.87872 0.88176 0.88484 0.88762 0.88970 0.89115 0.89230
725.264 0.89322 0.89359 0.89325 0.89268 0.89234 0.89187 0.89048 0.88777 0.88385 0.87879
711.099 0.87250 0.86503 0.85653 0.84699 0.83617 0.82426 0.81282 0.80466 0.80200 0.80479
696.934 0.81110 0.81882 0.82667 0.83411 0.84124 0.84831 0.85509 0.86091 0.86532 0.86857
682.768 0.87115 0.87341 0.87551 0.87755 0.87959 0.88170 0.88400 0.88661 0.88944 0.89193
668.603 0.89185 0.88636 0.87762 0.87005 0.86615 0.86677 0.87068 0.87542 0.87950 0.88266
654.438 0.88483 0.88590 0.88627 0.88719 0.88996 0.89469 0.90020 0.90506 0.90826 0.90911
640.272 0.90733 0.90333 0.89789 0.89163 0.88508 0.87937 0.87551 0.87212 0.86528 0.85363
626.107 0.84287 0.84137 0.85070 0.86415 0.87479 0.88119 0.88543 0.88947 0.89417 0.89970
611.942 0.90562 0.91110 0.91542 0.91838 0.92026 0.92110 0.92000 0.91512 0.90451 0.88858
597.776 0.87230 0.86347 0.86688 0.88054 0.89749 0.91113 0.91914 0.92320 0.92597 0.92859
583.611 0.93034 0.93007 0.92765 0.92407 0.92056 0.91814 0.91752 0.91865 0.92067 0.92276
569.446 0.92471 0.92610 0.92583 0.92304 0.91800 0.91132 0.90284 0.89181 0.87740 0.85852
555.280 0.83429 0.80609 0.77900 0.76032 0.75583 0.76683 0.78963 0.81741 0.84361 0.86466
541.115 0.88004 0.89013 0.89530 0.89705 0.89831 0.90150 0.90664 0.91219 0.91690 0.92040
526.950 0.92302 0.92539 0.92762 0.92906 0.92922 0.92853 0.92800 0.92836 0.92945 0.93050
512.785 0.93120 0.93210 0.93369 0.93540 0.93628 0.93649 0.93698 0.93793 0.93840 0.93766
498.619 0.93562 0.93174 0.92491 0.91567 0.90789 0.90652 0.91245 0.92154 0.92903 0.93328
484.454 0.93529 0.93613 0.93577 0.93394 0.93110 0.92826 0.92656 0.92677 0.92872 0.93122
470.289 0.93321 0.93479 0.93630 0.93742 0.93766 0.93719 0.93676 0.93699 0.93825 0.94067
456.123 0.94324 0.94428 0.94348 0.94247 0.94316 0.94578 0.94892 0.95072 0.94994 0.94689
441.958 0.94359 0.94207 0.94267 0.94471 0.94767 0.95103 0.95395 0.95550 0.95527 0.95365
427.793 0.95155 0.94973 0.94857 0.94787 0.94646 0.94239 0.93403 0.92196 0.90792 0.89214
413.627 0.87610 0.86455 0.86199 0.86780 0.87689 0.88476 0.89075 0.89673 0.90360 0.91079
399.462 0.91813 0.92544 0.93023 0.93058 0.92795 0.92477 0.92279 0.92227 0.92153 0.91913
385.297 0.91787 0.92301 0.93293 0.94007 0.94069 0.93588 0.92638 0.91120 0.89235
##END= 
