##TITLE= 
##JCAMP-DX= 4.24
##DATA TYPE= INFRARED SPECTRUM
##ORIGIN= JASCO
##OWNER= 
##DATE= 21/07/22
##TIME= 12:14:51
##SPECTROMETER/DATA SYSTEM= 
##RESOLUTION= 
##DELTAX=   0.96423347
##XUNITS= 1/CM
##YUNITS= TRANSMITTANCE
##XFACTOR= 1.00000
##YFACTOR= 1E-005
##FIRSTX=   649.8934
##LASTX=  4000.6047
##NPOINTS=     3476
##FIRSTY=      0.54127
##MAXY=      0.89647
##MINY=      0.46147
##XYDATA= (X++(Y..Y))
649.8934 54127 53809 53605 53493 53418 53336 53236 53144 53088 53082 53111
660.4999 53151 53186 53221 53274 53370 53530 53762 54034 54241 54266 54107
671.1065 53846 53547 53227 52887 52531 52172 51809 51405 50884 50163 49218
681.7131 48131 47109 46430 46355 47040 48473 50468 52719 54902 56763 58178
692.3196 59147 59768 60191 60577 61065 61736 62596 63582 64587 65505 66256
702.9262 66806 67153 67313 67306 67153 66881 66543 66219 66009 65993 66176
713.5328 66454 66637 66534 66074 65394 64821 64694 65141 65988 66885 67488
724.1393 67613 67280 66648 65902 65147 64405 63692 63082 62700 62643 62897
734.7459 63310 63653 63711 63368 62644 61683 60724 60040 59884 60407 61598
745.3525 63265 65083 66691 67804 68285 68157 67563 66697 65734 64787 63896
755.9590 63030 62099 60971 59499 57569 55163 52427 49694 47437 46147 46171
766.5656 47585 50162 53444 56907 60114 62814 64944 66573 67819 68789 69556
777.1722 70159 70625 70975 71235 71432 71580 71669 71668 71534 71245 70803
787.7787 70216 69446 68378 66851 64767 62236 59653 57634 56794 57483 59607
798.3853 62653 65902 68709 70718 71903 72463 72666 72717 72722 72710 72680
808.9919 72636 72588 72549 72533 72549 72606 72705 72835 72972 73091 73174
819.5984 73215 73218 73194 73149 73088 73013 72918 72794 72628 72409 72137
830.2050 71824 71492 71161 70852 70581 70376 70274 70322 70551 70957 71491
840.8116 72072 72614 73058 73388 73625 73799 73928 74010 74031 73983 73879
851.4182 73745 73607 73473 73335 73175 72982 72768 72560 72388 72263 72178
862.0247 72104 72013 71890 71739 71581 71442 71343 71298 71316 71404 71562
872.6313 71784 72053 72344 72630 72891 73116 73308 73471 73612 73730 73822
883.2379 73882 73906 73890 73838 73757 73656 73552 73461 73399 73374 73385
893.8444 73416 73449 73464 73447 73400 73333 73261 73199 73154 73128 73113
904.4510 73098 73074 73036 72980 72908 72818 72707 72572 72410 72219 71994
915.0576 71732 71421 71047 70586 70008 69278 68377 67325 66209 65191 64480
925.6641 64272 64670 65633 66983 68454 69791 70824 71502 71880 72062 72148
936.2707 72199 72235 72246 72214 72125 71972 71748 71448 71065 70608 70112
946.8773 69643 69289 69137 69238 69587 70124 70747 71353 71867 72255 72520
957.4838 72689 72789 72841 72857 72842 72801 72735 72644 72527 72387 72233
968.0904 72082 71952 71852 71778 71715 71645 71552 71436 71305 71172 71046
978.6970 70927 70807 70677 70530 70365 70183 69983 69760 69502 69205 68877
989.3035 68542 68232 67973 67771 67605 67445 67258 67032 66770 66490 66212
999.9101 65948 65705 65484 65286 65111 64961 64837 64740 64667 64607 64542
1010.5167 64456 64339 64200 64064 63964 63932 63986 64126 64339 64607 64910
1021.1232 65230 65551 65859 66140 66378 66562 66680 66724 66688 66564 66347
1031.7299 66034 65640 65212 64831 64597 64603 64894 65446 66162 66913 67572
1042.3364 68058 68350 68472 68471 68392 68265 68104 67916 67709 67496 67290
1052.9430 67101 66930 66771 66616 66458 66294 66123 65943 65746 65523 65268
1063.5496 64984 64684 64386 64102 63840 63589 63335 63062 62766 62456 62149
1074.1561 61854 61557 61210 60751 60127 59327 58402 57455 56617 56013 55734
1084.7627 55828 56284 57031 57947 58882 59697 60299 60655 60785 60743 60590
1095.3693 60378 60145 59912 59691 59482 59279 59075 58863 58643 58418 58193
1105.9758 57969 57743 57511 57265 57006 56743 56492 56274 56115 56039 56073
1116.5824 56250 56606 57171 57952 58921 60008 61115 62138 62996 63646 64093
1127.1890 64377 64558 64698 64845 65028 65253 65513 65797 66103 66438 66816
1137.7955 67248 67734 68262 68813 69371 69923 70464 70978 71445 71832 72107
1148.4021 72249 72254 72136 71922 71636 71298 70910 70468 69961 69385 68746
1159.0087 68060 67345 66618 65891 65171 64466 63791 63169 62627 62189 61871
1169.6152 61678 61603 61635 61751 61921 62110 62276 62387 62421 62372 62247
1180.2218 62054 61800 61485 61106 60668 60184 59676 59164 58662 58174 57693
1190.8284 57213 56730 56248 55772 55308 54856 54416 53989 53582 53208 52889
1201.4349 52648 52504 52468 52540 52707 52944 53221 53508 53781 54027 54244
1212.0415 54441 54635 54843 55079 55351 55661 56007 56383 56789 57219 57671
1222.6481 58138 58610 59080 59541 59992 60436 60877 61313 61736 62136 62500
1233.2546 62824 63110 63365 63594 63796 63966 64099 64195 64258 64294 64308
1243.8612 64303 64290 64289 64332 64452 64667 64966 65308 65632 65875 65994
1254.4678 65966 65790 65470 65017 64446 63785 63089 62426 61872 61485 61296
1265.0743 61305 61482 61776 62132 62499 62842 63139 63384 63580 63733 63856
1275.6809 63960 64062 64178 64326 64512 64732 64967 65187 65361 65465 65492
1286.2875 65446 65346 65216 65075 64942 64826 64732 64662 64611 64570 64521
1296.8940 64448 64340 64198 64034 63870 63727 63622 63558 63528 63519 63511
1307.5006 63489 63445 63373 63273 63148 63007 62864 62744 62673 62677 62765
1318.1072 62919 63094 63232 63280 63218 63050 62800 62494 62152 61785 61403
1328.7137 61010 60610 60206 59792 59362 58910 58435 57951 57485 57087 56832
1339.3203 56790 57000 57456 58130 59006 60082 61359 62832 64474 66242 68081
1349.9269 69930 71733 73439 75003 76377 77510 78357 78902 79155 79128 78806
1360.5334 78147 77129 75823 74391 72973 71602 70230 68812 67365 65962 64685
1371.1400 63569 62596 61742 61024 60506 60257 60307 60663 61331 62305 63532
1381.7466 64900 66277 67549 68626 69404 69763 69632 69072 68232 67232 66109
1392.3531 64851 63463 62012 60631 59446 58503 57768 57190 56740 56406 56173
1402.9597 56035 55997 56080 56311 56701 57259 58009 58993 60231 61666 63160
1413.5663 64568 65811 66900 67894 68847 69756 70574 71309 72050 72911 73943
1424.1729 75105 76287 77376 78321 79140 79883 80576 81204 81735 82152 82454
1434.7794 82637 82691 82627 82508 82413 82375 82384 82405 82399 82335 82199
1445.3860 81990 81728 81441 81163 80918 80712 80534 80366 80187 79964 79633
1455.9926 79089 78306 77487 76862 76432 76091 75757 75392 75004 74647 74389
1466.5991 74244 74163 74079 73930 73670 73299 72956 72934 73443 74412 75637
1477.2057 76963 78302 79593 80778 81794 82587 83130 83436 83544 83498 83333
1487.8123 83071 82742 82401 82091 81798 81459 80991 80301 79330 78165 77140
1498.4188 76665 76844 77450 78210 78946 79560 79966 80028 79558 78582 77609
1509.0254 76994 76598 76223 75774 75208 74500 73645 72686 71707 70779 69883
1519.6320 68912 67756 66430 65081 63822 62625 61391 60085 58783 57604 56612
1530.2385 55793 55095 54488 54007 53720 53656 53790 54102 54643 55578 57139
1540.8451 59258 61336 62997 64390 65718 67054 68411 69811 71293 72892 74591
1551.4517 76290 77844 79145 80177 81003 81753 82634 83821 85101 86035 86585
1562.0582 86929 87193 87428 87646 87843 88001 88108 88165 88189 88198 88191
1572.6648 88154 88063 87895 87644 87354 87092 86884 86703 86513 86294 86052
1583.2714 85808 85589 85408 85258 85119 84968 84792 84582 84332 84040 83707
1593.8779 83345 82975 82620 82292 81983 81673 81338 80964 80548 80104 79650
1604.4845 79201 78765 78338 77916 77501 77110 76761 76462 76200 75944 75639
1615.0911 75226 74680 74073 73524 73067 72641 72143 71493 70675 69776 68913
1625.6976 68124 67336 66467 65516 64569 63712 62962 62242 61397 60240 58721
1636.3042 57135 55881 55008 54335 53726 53137 52573 52050 51584 51211 50999
1646.9108 50992 51129 51305 51499 51803 52453 53755 55606 57334 58620 59660
1657.5173 60675 61803 63151 64839 66924 69254 71480 73315 74720 75843 76892
1668.1239 78050 79371 80694 81781 82564 83161 83716 84298 84873 85362 85729
1678.7305 85993 86197 86382 86583 86840 87174 87534 87836 88049 88204 88337
1689.3370 88468 88598 88716 88798 88829 88797 88707 88585 88475 88426 88457
1699.9436 88543 88635 88700 88724 88713 88673 88619 88563 88513 88469 88421
1710.5502 88359 88275 88162 88020 87865 87736 87704 87813 88010 88204 88354
1721.1567 88459 88532 88582 88609 88611 88584 88528 88447 88348 88240 88137
1731.7633 88058 88031 88070 88154 88241 88308 88356 88391 88423 88454 88487
1742.3699 88522 88556 88589 88616 88632 88639 88650 88695 88796 88943 89098
1752.9764 89232 89331 89396 89434 89453 89460 89456 89443 89432 89435 89462
1763.5830 89511 89569 89619 89647 89647 89613 89550 89471 89401 89367 89374
1774.1896 89404 89430 89440 89431 89410 89388 89377 89378 89389 89399 89402
1784.7961 89395 89376 89345 89297 89221 89112 88975 88850 88798 88853 88988
1795.4027 89132 89216 89191 89039 88801 88575 88472 88530 88702 88895 89035
1806.0093 89087 89060 88987 88906 88846 88815 88805 88803 88798 88785 88763
1816.6158 88731 88693 88656 88624 88598 88577 88556 88533 88505 88466 88413
1827.2224 88343 88267 88203 88169 88170 88193 88219 88231 88226 88202 88163
1837.8290 88111 88045 87964 87866 87754 87636 87534 87470 87456 87482 87535
1848.4355 87604 87681 87760 87832 87882 87899 87878 87821 87740 87650 87571
1859.0421 87515 87484 87473 87467 87453 87420 87365 87292 87218 87171 87174
1869.6487 87224 87291 87341 87353 87325 87263 87186 87113 87058 87024 87004
1880.2552 86987 86959 86915 86852 86773 86677 86564 86436 86299 86167 86058
1890.8618 85988 85962 85981 86045 86153 86296 86456 86612 86745 86849 86926
1901.4684 86983 87023 87043 87038 87006 86954 86898 86859 86854 86885 86938
1912.0750 86991 87025 87028 86997 86938 86859 86772 86688 86615 86561 86534
1922.6815 86543 86589 86663 86739 86794 86810 86787 86737 86680 86631 86592
1933.2881 86553 86500 86429 86346 86263 86192 86134 86084 86036 85990 85951
1943.8947 85927 85916 85911 85902 85890 85882 85892 85928 85988 86053 86102
1954.5012 86116 86090 86033 85964 85904 85868 85864 85891 85935 85978 85995
1965.1078 85969 85901 85808 85723 85668 85648 85648 85650 85643 85627 85606
1975.7144 85581 85543 85487 85422 85378 85381 85441 85535 85617 85642 85595
1986.3209 85497 85392 85323 85302 85315 85333 85338 85337 85349 85394 85471
1996.9275 85563 85647 85703 85723 85712 85679 85635 85586 85534 85482 85436
2007.5341 85404 85392 85406 85438 85472 85488 85475 85442 85411 85410 85451
2018.1406 85520 85581 85597 85551 85458 85355 85288 85289 85358 85463 85549
2028.7472 85571 85508 85378 85223 85090 85007 84975 84981 85015 85077 85172
2039.3538 85293 85409 85484 85487 85423 85326 85239 85192 85189 85216 85253
2049.9604 85293 85339 85394 85449 85489 85498 85470 85418 85363 85326 85315
2060.5669 85328 85350 85369 85373 85361 85340 85325 85328 85353 85392 85430
2071.1736 85451 85448 85427 85400 85378 85364 85355 85342 85328 85318 85323
2081.7800 85347 85389 85440 85491 85535 85569 85591 85601 85599 85587 85573
2092.3867 85565 85567 85575 85579 85566 85527 85463 85387 85320 85276 85265
2102.9932 85280 85309 85338 85360 85373 85379 85378 85366 85343 85309 85272
2113.5999 85245 85236 85248 85276 85310 85337 85351 85352 85346 85339 85336
2124.2063 85330 85315 85281 85228 85169 85122 85102 85110 85133 85150 85138
2134.8130 85091 85022 84957 84920 84921 84948 84976 84981 84956 84913 84874
2145.4194 84856 84863 84886 84910 84916 84891 84829 84757 84751 84918 85347
2156.0261 86026 86773 87269 87207 86516 85439 84384 83677 83420 83512 83754
2166.6326 83968 84067 84052 83974 83884 83811 83771 83771 83813 83888 83974
2177.2393 84049 84102 84138 84172 84213 84259 84300 84323 84325 84311 84290
2187.8457 84270 84255 84249 84252 84268 84301 84349 84406 84457 84484 84475
2198.4524 84430 84360 84286 84224 84178 84147 84126 84114 84115 84131 84158
2209.0588 84181 84189 84176 84149 84128 84128 84157 84207 84260 84296 84301
2219.6655 84275 84227 84176 84139 84126 84144 84188 84247 84310 84367 84410
2230.2720 84438 84446 84433 84400 84350 84297 84257 84243 84258 84297 84344
2240.8787 84389 84425 84456 84484 84510 84532 84543 84540 84524 84499 84470
2251.4851 84442 84419 84403 84397 84400 84413 84434 84458 84483 84505 84519
2262.0918 84522 84509 84480 84440 84403 84382 84389 84424 84474 84523 84557
2272.6982 84572 84572 84567 84565 84565 84566 84562 84554 84543 84532 84523
2283.3049 84515 84508 84505 84506 84516 84535 84561 84593 84623 84647 84660
2293.9114 84660 84651 84638 84625 84617 84613 84613 84618 84632 84657 84688
2304.5181 84715 84728 84718 84690 84655 84627 84614 84613 84616 84616 84619
2315.1245 84632 84660 84700 84735 84746 84725 84678 84630 84607 84625 84681
2325.7312 84756 84830 84886 84923 84946 84970 85002 85040 85074 85092 85092
2336.3376 85080 85067 85060 85056 85045 85014 84963 84905 84861 84848 84863
2346.9443 84889 84912 84919 84905 84871 84821 84764 84713 84673 84644 84618
2357.5508 84592 84574 84574 84602 84655 84723 84792 84845 84871 84866 84834
2368.1575 84794 84762 84748 84748 84750 84741 84719 84690 84667 84655 84655
2378.7639 84663 84677 84694 84718 84747 84778 84803 84816 84816 84806 84792
2389.3706 84780 84772 84767 84763 84761 84761 84764 84766 84761 84744 84716
2399.9771 84679 84640 84605 84578 84558 84544 84532 84518 84502 84484 84469
2410.5837 84463 84468 84483 84501 84514 84515 84504 84484 84463 84447 84438
2421.1902 84436 84439 84443 84444 84440 84429 84413 84396 84383 84375 84374
2431.7969 84377 84384 84390 84390 84382 84363 84338 84312 84295 84289 84291
2442.4033 84296 84297 84292 84282 84270 84260 84253 84247 84244 84243 84246
2453.0100 84251 84255 84255 84252 84247 84241 84233 84223 84209 84194 84182
2463.6165 84177 84179 84184 84188 84186 84181 84178 84185 84202 84229 84258
2474.2231 84284 84302 84310 84309 84299 84282 84261 84243 84234 84238 84253
2484.8296 84274 84290 84295 84285 84263 84236 84212 84199 84198 84209 84225
2495.4363 84240 84245 84237 84218 84194 84177 84173 84186 84209 84232 84246
2506.0427 84243 84225 84199 84173 84158 84156 84165 84177 84187 84194 84201
2516.6494 84217 84246 84282 84312 84320 84298 84252 84197 84150 84123 84114
2527.2559 84116 84118 84117 84114 84114 84119 84132 84149 84168 84184 84190
2537.8625 84184 84165 84138 84110 84088 84078 84078 84085 84097 84111 84127
2548.4690 84144 84158 84163 84156 84138 84118 84105 84106 84119 84137 84148
2559.0757 84146 84132 84114 84102 84100 84109 84126 84143 84156 84166 84171
2569.6821 84175 84179 84185 84192 84199 84204 84204 84200 84193 84186 84182
2580.2888 84180 84177 84170 84160 84152 84153 84167 84192 84221 84242 84248
2590.8953 84240 84224 84209 84203 84209 84224 84246 84266 84279 84279 84267
2601.5020 84245 84218 84196 84182 84179 84185 84198 84212 84224 84229 84222
2612.1084 84203 84176 84146 84119 84098 84084 84075 84070 84073 84086 84109
2622.7151 84136 84162 84183 84198 84211 84226 84245 84267 84291 84314 84337
2633.3215 84362 84390 84421 84451 84477 84496 84507 84512 84514 84517 84526
2643.9282 84541 84560 84579 84594 84604 84607 84605 84599 84589 84579 84572
2654.5347 84574 84587 84611 84641 84668 84687 84697 84699 84699 84699 84699
2665.1414 84696 84687 84674 84660 84648 84641 84637 84633 84626 84617 84609
2675.7478 84606 84609 84617 84625 84629 84628 84623 84616 84610 84605 84604
2686.3545 84605 84611 84622 84635 84647 84652 84647 84634 84619 84608 84606
2696.9609 84611 84620 84627 84626 84614 84593 84567 84541 84522 84513 84512
2707.5676 84515 84518 84515 84504 84485 84459 84430 84398 84368 84342 84325
2718.1741 84318 84321 84329 84338 84344 84345 84340 84331 84318 84300 84279
2728.7808 84256 84233 84213 84196 84179 84160 84140 84121 84107 84100 84097
2739.3872 84094 84087 84075 84063 84057 84064 84083 84112 84142 84165 84175
2749.9939 84174 84165 84155 84151 84155 84165 84176 84186 84192 84198 84206
2760.6003 84217 84231 84246 84261 84276 84292 84306 84315 84316 84307 84295
2771.2070 84286 84285 84291 84299 84299 84287 84265 84238 84215 84201 84195
2781.8135 84192 84188 84178 84167 84161 84164 84176 84192 84202 84199 84180
2792.4202 84152 84122 84100 84089 84088 84092 84097 84097 84092 84080 84066
2803.0266 84051 84039 84033 84034 84039 84044 84043 84033 84014 83989 83963
2813.6333 83940 83921 83907 83895 83884 83876 83871 83869 83870 83871 83872
2824.2397 83873 83873 83871 83866 83857 83844 83827 83808 83787 83766 83749
2834.8464 83735 83728 83725 83723 83715 83695 83660 83613 83563 83522 83497
2845.4529 83491 83496 83502 83494 83465 83416 83354 83291 83236 83193 83161
2856.0596 83137 83117 83094 83066 83029 82982 82924 82860 82790 82716 82639
2866.6660 82563 82491 82428 82378 82341 82317 82310 82326 82371 82437 82506
2877.2727 82549 82544 82487 82400 82318 82272 82271 82305 82350 82384 82396
2887.8792 82384 82352 82307 82254 82203 82159 82124 82093 82052 81990 81908
2898.4858 81815 81731 81672 81640 81628 81621 81606 81579 81545 81513 81491
2909.0923 81481 81483 81495 81516 81548 81590 81641 81694 81738 81765 81769
2919.6990 81751 81718 81677 81631 81584 81533 81481 81427 81373 81319 81260
2930.3054 81194 81120 81045 80976 80928 80906 80915 80951 81010 81090 81192
2940.9121 81316 81459 81612 81760 81884 81976 82032 82059 82067 82065 82055
2951.5186 82038 82010 81970 81919 81857 81785 81703 81610 81508 81403 81297
2962.1252 81193 81090 80987 80885 80787 80699 80626 80568 80523 80484 80445
2972.7317 80395 80326 80228 80097 79934 79745 79543 79341 79156 79001 78886
2983.3384 78821 78810 78860 78973 79146 79370 79625 79881 80108 80284 80397
2993.9448 80450 80460 80442 80414 80386 80368 80368 80392 80441 80515 80607
3004.5515 80711 80821 80934 81050 81169 81292 81418 81545 81673 81799 81921
3015.1580 82035 82137 82224 82292 82342 82379 82410 82443 82486 82540 82601
3025.7646 82662 82715 82754 82781 82798 82810 82821 82833 82842 82846 82841
3036.3711 82827 82807 82786 82766 82748 82732 82712 82685 82652 82617 82589
3046.9778 82578 82590 82624 82674 82733 82794 82853 82910 82964 83011 83045
3057.5842 83063 83067 83065 83063 83071 83090 83120 83156 83193 83227 83253
3068.1909 83267 83267 83254 83230 83197 83162 83129 83100 83078 83064 83059
3078.7974 83060 83062 83061 83052 83035 83015 83000 82999 83019 83059 83116
3089.4041 83181 83244 83298 83338 83361 83371 83371 83367 83364 83365 83367
3100.0105 83368 83366 83360 83351 83341 83330 83319 83310 83303 83299 83296
3110.6172 83291 83282 83268 83251 83235 83221 83209 83196 83176 83150 83119
3121.2236 83088 83061 83042 83033 83031 83032 83028 83012 82982 82942 82899
3131.8303 82863 82842 82836 82842 82853 82861 82859 82843 82814 82777 82740
3142.4368 82713 82700 82699 82705 82711 82712 82706 82694 82677 82657 82634
3153.0435 82609 82583 82554 82523 82487 82448 82409 82375 82350 82336 82326
3163.6499 82314 82290 82250 82197 82142 82098 82072 82065 82071 82076 82072
3174.2566 82054 82030 82008 81994 81990 81990 81992 81992 81993 81998 82006
3184.8630 82015 82024 82033 82048 82070 82099 82125 82137 82127 82098 82061
3195.4697 82031 82019 82026 82042 82055 82054 82041 82022 82006 81997 81993
3206.0762 81986 81968 81937 81898 81860 81835 81830 81845 81875 81911 81942
3216.6829 81961 81967 81961 81945 81923 81895 81865 81840 81824 81823 81838
3227.2893 81866 81904 81948 81990 82022 82039 82046 82063 82118 82226 82372
3237.8960 82509 82572 82519 82355 82136 81944 81840 81840 81912 82003 82065
3248.5024 82082 82062 82024 81989 81964 81955 81962 81980 82004 82026 82040
3259.1091 82045 82046 82051 82064 82088 82119 82150 82176 82196 82210 82221
3269.7156 82234 82249 82264 82276 82282 82279 82267 82247 82222 82195 82168
3280.3223 82148 82139 82144 82162 82187 82215 82244 82275 82314 82362 82419
3290.9287 82480 82540 82594 82639 82674 82697 82710 82717 82723 82738 82766
3301.5354 82810 82864 82922 82977 83027 83070 83103 83122 83122 83105 83080
3312.1418 83062 83065 83091 83135 83183 83222 83248 83267 83289 83320 83363
3322.7485 83413 83462 83505 83539 83564 83582 83596 83609 83623 83637 83654
3333.3550 83672 83694 83722 83754 83787 83816 83836 83850 83864 83883 83911
3343.9617 83943 83973 83993 84006 84015 84028 84044 84061 84069 84066 84051
3354.5681 84031 84016 84011 84022 84048 84086 84131 84173 84207 84229 84244
3365.1748 84260 84282 84310 84335 84351 84356 84356 84361 84379 84410 84446
3375.7813 84477 84494 84495 84481 84457 84432 84414 84410 84426 84460 84506
3386.3879 84552 84591 84617 84629 84627 84616 84600 84586 84582 84595 84627
3396.9944 84675 84728 84776 84811 84827 84826 84811 84788 84764 84746 84736
3407.6011 84736 84742 84750 84754 84753 84747 84738 84729 84726 84731 84746
3418.2075 84767 84787 84796 84788 84764 84736 84715 84714 84736 84778 84832
3428.8142 84887 84932 84961 84972 84968 84955 84943 84940 84950 84970 84990
3439.4207 85003 85002 84987 84966 84947 84936 84936 84945 84958 84970 84981
3450.0273 84991 85006 85028 85060 85096 85131 85153 85153 85129 85088 85046
3460.6338 85020 85025 85061 85114 85161 85184 85173 85136 85085 85038 85007
3471.2405 84997 85007 85033 85068 85103 85128 85141 85140 85131 85121 85117
3481.8469 85121 85128 85135 85138 85135 85126 85111 85093 85075 85067 85075
3492.4536 85103 85146 85196 85237 85259 85258 85238 85210 85183 85168 85171
3503.0601 85189 85214 85234 85242 85239 85233 85235 85253 85284 85316 85336
3513.6667 85340 85332 85325 85326 85334 85338 85322 85278 85212 85139 85084
3524.2732 85062 85075 85113 85161 85210 85252 85283 85300 85302 85293 85283
3534.8799 85282 85301 85337 85378 85407 85413 85392 85347 85286 85224 85177
3545.4863 85159 85174 85208 85245 85272 85286 85295 85311 85342 85384 85422
3556.0930 85440 85430 85395 85348 85302 85260 85216 85157 85076 84985 84923
3566.6995 84934 85026 85156 85275 85357 85403 85421 85422 85416 85407 85394
3577.3062 85376 85353 85329 85308 85289 85263 85218 85144 85045 84955 84927
3587.9126 84991 85121 85259 85360 85402 85378 85295 85182 85087 85052 85097
3598.5193 85214 85364 85491 85544 85507 85395 85240 85079 84944 84863 84844
3609.1257 84875 84935 85006 85083 85161 85231 85273 85267 85202 85094 84988
3619.7324 84944 84986 85083 85186 85255 85268 85214 85101 84965 84874 84880
3630.3391 84958 85051 85127 85181 85217 85237 85241 85233 85215 85196 85185
3640.9456 85182 85182 85168 85121 85025 84861 84630 84386 84260 84337 84527
3651.5522 84705 84820 84875 84889 84884 84882 84898 84930 84968 85003 85029
3662.1587 85043 85043 85023 84979 84906 84806 84692 84600 84564 84584 84625
3672.7654 84648 84636 84599 84580 84617 84708 84819 84920 84997 85043 85057
3683.3718 85043 85005 84944 84863 84771 84699 84687 84746 84842 84931 85000
3693.9785 85054 85103 85155 85208 85253 85280 85289 85293 85315 85364 85428
3704.5850 85479 85490 85443 85334 85175 85007 84902 84914 85022 85153 85259
3715.1917 85325 85353 85347 85305 85229 85130 85027 84949 84918 84945 85021
3725.7981 85121 85216 85284 85311 85291 85221 85096 84929 84762 84667 84694
3736.4048 84810 84938 85028 85064 85047 84988 84903 84830 84811 84860 84932
3747.0112 84978 84970 84916 84859 84863 84946 85057 85146 85192 85201 85192
3757.6179 85188 85213 85270 85339 85396 85426 85427 85404 85369 85337 85321
3768.2244 85330 85367 85428 85504 85577 85629 85650 85635 85586 85517 85453
3778.8311 85416 85414 85434 85457 85473 85485 85505 85541 85592 85646 85688
3789.4375 85709 85704 85677 85634 85582 85528 85478 85433 85391 85352 85322
3800.0442 85315 85343 85398 85454 85492 85509 85519 85542 85587 85640 85682
3810.6506 85698 85683 85638 85570 85489 85411 85342 85284 85235 85206 85210
3821.2573 85255 85322 85384 85429 85457 85474 85486 85497 85503 85506 85504
3831.8638 85496 85481 85452 85402 85331 85254 85197 85185 85221 85283 85349
3842.4705 85409 85465 85518 85564 85595 85599 85567 85490 85359 85183 85009
3853.0769 84944 85043 85225 85392 85509 85573 85589 85559 85489 85396 85312
3863.6836 85268 85269 85295 85320 85325 85311 85292 85290 85321 85385 85461
3874.2900 85528 85571 85584 85567 85526 85472 85417 85373 85349 85352 85392
3884.8967 85468 85563 85647 85691 85682 85627 85558 85515 85522 85566 85614
3895.5032 85637 85620 85560 85467 85360 85259 85183 85148 85166 85239 85351
3906.1099 85475 85587 85672 85727 85751 85747 85722 85680 85629 85575 85532
3916.7163 85510 85516 85543 85574 85594 85597 85586 85576 85579 85597 85622
3927.3230 85639 85636 85613 85581 85558 85560 85590 85638 85690 85733 85761
3937.9294 85770 85758 85729 85691 85655 85630 85620 85618 85619 85619 85618
3948.5361 85620 85624 85630 85635 85639 85643 85650 85659 85665 85665 85656
3959.1426 85645 85638 85645 85663 85687 85707 85718 85722 85721 85719 85713
3969.7493 85700 85676 85643 85608 85583 85573 85581 85602 85627 85647 85656
3980.3557 85652 85636 85615 85598 85589 85588 85594 85602 85608 85610 85610
3990.9624 85609 85606 85604 85602 85605 85612 85625 85641 85657 85673 85689
##END= 
