##TITLE= Converted Spectrum
##JCAMP-DX= 5.00
##DATA TYPE= INFRARED SPECTRUM
##XUNITS= 1/CM
##YUNITS= ABSORBANCE
##FIRSTX= 4000.0
##LASTX= 400.0
##NPOINTS= 600
##XYDATA= (X++(Y..Y))
4000.0000 0.527280 0.919947 0.459355 0.333867 0.754213 0.732690 0.542436 0.045565 0.290556 0.122097 0.001706 0.359319 0.345997 0.759845 0.891539 0.666114 0.228218 0.469118 0.123315 0.782114 0.537032 0.162516 0.875258 0.713966 0.013724 0.574416 0.089564 0.274374 0.359639 0.259735 0.054276 0.938903 0.103818 0.067870 0.954160 0.118222 0.434817 0.343393 0.774190 0.544426 0.279760 0.359580 0.998919 0.319337 0.726757 0.598296 0.623522 0.197963 0.969818 0.967001 0.370104 0.921132 0.869685 0.089622 0.319790 0.423062 0.850524 0.651103 0.220020 0.913322 0.351397 0.063211 0.178394 0.962546 0.230696 0.702803 0.078396 0.819316 0.311139 0.184347 0.905046 0.843075 0.628209 0.520178 0.302654 0.350536 0.888675 0.200505 0.625995 0.503242 0.452809 0.832578 0.113308 0.805097 0.832696 0.245947 0.977304 0.083065 0.954378 0.564001 0.252418 0.706166 0.673148 0.476250 0.747177 0.692886 0.953089 0.342888 0.079638 0.042310 0.629401 0.066929 0.921415 0.403942 0.438870 0.543832 0.204579 0.701542 0.648991 0.326355 0.030612 0.104995 0.359474 0.208305 0.760004 0.638946 0.720912 0.382411 0.041900 0.716336 0.796064 0.504646 0.189583 0.644566 0.143294 0.033685 0.602189 0.130753 0.770883 0.615131 0.829129 0.779293 0.020662 0.188251 0.242654 0.649872 0.643281 0.575202 0.995756 0.091526 0.343643 0.490928 0.163437 0.698909 0.465182 0.267782 0.902001 0.140822 0.244635 0.187702 0.693836 0.911268 0.005899 0.391579 0.628886 0.779346 0.131721 0.468554 0.949989 0.604824 0.037475 0.401297 0.922599 0.936261 0.803754 0.691350 0.424151 0.646322 0.097334 0.443521 0.004383 0.777645 0.530933 0.620780 0.786347 0.521517 0.345824 0.087114 0.585240 0.231023 0.642561 0.783647 0.722813 0.383787 0.414576 0.351130 0.379214 0.221631 0.332655 0.485686 0.357148 0.595227 0.993647 0.845005 0.795503 0.526929 0.884363 0.305897 0.743266 0.599775 0.794247 0.146554 0.960198 0.069120 0.683865 0.631382 0.204524 0.263329 0.376926 0.321102 0.847188 0.193277 0.084828 0.316993 0.322903 0.942238 0.619494 0.458123 0.915628 0.824437 0.183638 0.796211 0.656879 0.120717 0.568631 0.620755 0.832646 0.324239 0.064100 0.655426 0.614726 0.654128 0.470914 0.461691 0.335885 0.262883 0.320394 0.858668 0.747603 0.344616 0.613385 0.778544 0.817353 0.406384 0.226355 0.705871 0.456061 0.242518 0.432146 0.395436 0.952653 0.795775 0.143303 0.284765 0.421888 0.272554 0.862870 0.749849 0.425554 0.043357 0.528234 0.943611 0.833043 0.696133 0.126014 0.593268 0.103305 0.079596 0.136942 0.138160 0.293127 0.384498 0.475617 0.285361 0.232865 0.471525 0.044027 0.083690 0.152919 0.141357 0.586010 0.188213 0.615920 0.904872 0.895125 0.759187 0.711471 0.178584 0.960471 0.403568 0.007131 0.180817 0.868187 0.425637 0.010535 0.415435 0.393993 0.391561 0.355369 0.290389 0.177015 0.504004 0.722140 0.929308 0.701964 0.667811 0.687720 0.235697 0.308575 0.060721 0.222572 0.448734 0.905821 0.631582 0.563234 0.295098 0.354915 0.557198 0.519559 0.106107 0.260279 0.726675 0.231207 0.446369 0.400927 0.633912 0.783818 0.211840 0.310301 0.560041 0.221876 0.147062 0.087576 0.233300 0.693148 0.215993 0.049995 0.418304 0.941186 0.630453 0.327267 0.881595 0.770100 0.572396 0.367655 0.830176 0.013350 0.110163 0.809908 0.521238 0.719021 0.041192 0.632036 0.542830 0.813230 0.844075 0.002070 0.390360 0.729990 0.976162 0.399426 0.514853 0.817807 0.468683 0.282749 0.822489 0.836282 0.630195 0.494803 0.271769 0.321773 0.684421 0.985393 0.727031 0.591336 0.356137 0.065191 0.312865 0.064612 0.648435 0.075986 0.429840 0.659096 0.555401 0.002280 0.248904 0.767140 0.381723 0.929521 0.819878 0.793297 0.451453 0.964844 0.367658 0.259180 0.332019 0.962168 0.039624 0.393057 0.075770 0.783253 0.865539 0.953461 0.810253 0.184321 0.714435 0.932691 0.852080 0.410726 0.914494 0.465486 0.608658 0.231620 0.511314 0.122709 0.064554 0.982849 0.494713 0.976983 0.625179 0.609348 0.255071 0.221161 0.768575 0.204574 0.073502 0.551698 0.619608 0.004761 0.484518 0.545885 0.899673 0.275049 0.494072 0.600040 0.175088 0.933437 0.194059 0.344799 0.145030 0.473906 0.412499 0.304456 0.641054 0.204408 0.108971 0.248868 0.677046 0.681553 0.769314 0.103641 0.510614 0.742827 0.283332 0.206479 0.075659 0.954195 0.804920 0.017506 0.037291 0.684116 0.054296 0.121425 0.198109 0.349159 0.539982 0.575899 0.854572 0.993099 0.836408 0.681314 0.481306 0.272594 0.334896 0.171088 0.220867 0.228085 0.552385 0.712256 0.836531 0.648220 0.220010 0.428307 0.805508 0.842835 0.162762 0.621726 0.006463 0.192634 0.393367 0.173174 0.715685 0.782195 0.562381 0.788944 0.830913 0.496521 0.041549 0.887919 0.440246 0.778547 0.168626 0.695911 0.357326 0.574334 0.029591 0.708421 0.675047 0.754147 0.673280 0.680990 0.943864 0.175915 0.532512 0.888056 0.814666 0.314613 0.709561 0.538814 0.181082 0.648406 0.066856 0.556857 0.964983 0.530876 0.002147 0.927164 0.867058 0.556192 0.697517 0.866350 0.685090 0.220517 0.606849 0.016644 0.063333 0.406446 0.824095 0.336963 0.501165 0.553150 0.600111 0.367108 0.765922 0.956687 0.997637 0.543308 0.307036 0.738978 0.039576 0.281799 0.055048 0.714541 0.952197 0.133884 0.010703 0.667243 0.033379 0.751264 0.793528 0.337468 0.384513 0.836568 0.954570 0.797298 0.615276 0.990483 0.228306 0.907957 0.851809 0.484363 0.680076 0.411749 0.251732 0.729309 0.005746 0.715877 0.885909 0.596993 0.743781 0.798347 0.800219 0.562390 0.234859 0.572859 0.616791 0.192032 0.134849 0.275063 0.711372 0.170706 0.074886 0.279135 0.469394 0.960779 0.973047 0.600214 0.404311 0.281101 0.439933
##END=
